Run Name,group 1
Run Date,01:49:43 PM   03-05-15
Method Name,8%
Export Format Version, 1.00
Method ID, 2234
Points/Second, 5.00
Number of Records,   1766
Offset from Run Start Time,00:00:00
Run End Time,00:05:54
Time,Second
QuadTec 1, (280.0 nm), AU
QuadTec 2, (260.0 nm), AU
Gradient Pump,<Not Selected>
QuadTec 3, (214.0 nm), AU
QuadTec 4, (405.0 nm), AU
Conductivity,mS/cm
Trace 6,<Not Available>
GP Pressure,<Not Selected>
Volume,<Not Selected>
Fraction,<Not Available>
Time,QuadTec 1,QuadTec 2,QuadTec 3,QuadTec 4,Conductivity
     0.0,0.000918,0.000915,0.005908,0.000532,  41.220
     0.2,0.000911,0.000913,0.005828,0.000510,  41.216
     0.4,0.000918,0.000918,0.005645,0.000532,  41.215
     0.6,0.000932,0.000918,0.005383,0.000532,  41.205
     0.8,0.000925,0.000915,0.005365,0.000510,  41.194
     1.0,0.000928,0.000918,0.005427,0.000532,  41.193
     1.2,0.000934,0.000924,0.005576,0.000532,  41.188
     1.4,0.000928,0.000926,0.005680,0.000510,  41.190
     1.6,0.000930,0.000923,0.005784,0.000532,  41.183
     1.8,0.000937,0.000928,0.005913,0.000532,  41.187
     2.0,0.000930,0.000930,0.005572,0.000510,  41.180
     2.2,0.000930,0.000925,0.004985,0.000532,  41.180
     2.4,-0.000081,0.000928,0.004150,0.000519,  41.183
     2.6,-0.001003,0.000930,0.004139,0.000496,  41.176
     2.8,-0.001689,0.000924,0.004401,0.000532,  41.180
     3.0,-0.001061,0.000929,0.004938,0.000532,  41.180
     3.2,0.000000,0.000927,0.005146,0.000545,  41.171
     3.4,0.000000,0.000925,0.005323,0.000567,  41.173
     3.6,0.000000,0.000000,0.006049,0.000000,  41.163
     3.8,0.000000,0.000000,0.006049,0.000000,  41.164
     4.0,0.000000,0.000000,0.006049,0.000000,  41.164
     4.2,0.000000,0.000000,0.006049,0.000000,  41.163
     4.4,0.000000,0.000000,0.000000,0.000000,  41.165
     4.6,0.000000,0.000000,0.000000,0.000000,  41.161
     4.8,0.000000,0.000000,0.000000,0.000000,  41.162
     5.0,0.000000,0.000000,0.000000,0.000000,  41.158
     5.2,0.000000,0.000000,0.000000,0.000000,  41.151
     5.4,0.000000,0.000000,0.000000,0.000000,  41.157
     5.6,0.000000,0.000000,0.000000,0.000000,  41.154
     5.8,0.000000,0.000000,0.000000,0.000000,  41.151
     6.0,0.000000,0.000000,0.000000,0.000000,  41.150
     6.2,0.000000,0.000000,0.000000,0.000000,  41.149
     6.4,0.000000,0.000000,0.000000,0.000000,  41.152
     6.6,0.000000,0.000000,0.000000,0.000000,  41.150
     6.8,0.000068,0.000000,0.000000,0.000000,  41.151
     7.0,0.000114,0.000000,0.000000,0.000000,  41.151
     7.2,0.000159,0.000000,0.000000,0.000000,  41.149
     7.4,0.000184,0.000000,0.000000,0.000000,  41.152
     7.6,0.000207,0.000000,0.000000,0.000000,  41.157
     7.8,0.000216,0.000000,0.000000,0.000000,  41.153
     8.0,0.000238,0.000000,0.000000,0.000075,  41.153
     8.2,0.000274,0.000141,-0.000029,0.000102,  41.145
     8.4,0.000313,0.000172,0.000055,0.000115,  41.149
     8.6,0.000320,0.000199,0.000124,0.000128,  41.146
     8.8,0.000333,0.000225,0.000180,0.000154,  41.144
     9.0,0.000330,0.000255,0.000212,0.000181,  41.140
     9.2,0.000329,0.000291,0.000206,0.000194,  41.145
     9.4,0.000342,0.000329,0.000190,0.000220,  41.150
     9.6,0.000348,0.000349,0.000203,0.000198,  41.147
     9.8,0.000346,0.000362,0.000233,0.000198,  41.138
    10.0,0.000356,0.000362,0.000256,0.000211,  41.125
    10.2,0.000353,0.000363,0.000256,0.000176,  41.128
    10.4,0.000349,0.000369,0.000233,0.000224,  41.130
    10.6,0.000353,0.000377,0.000197,0.000238,  41.127
    10.8,0.000350,0.000380,0.000155,0.000189,  41.125
    11.0,0.000341,0.000381,0.000107,0.000224,  41.117
    11.2,0.000342,0.000392,0.000035,0.000238,  41.118
    11.4,0.000336,0.000404,-0.000007,0.000189,  41.117
    11.6,0.000333,0.000407,-0.000050,0.000211,  41.117
    11.8,0.000327,0.000403,-0.000080,0.000224,  41.117
    12.0,0.000321,0.000394,-0.000093,0.000189,  41.114
    12.2,0.000316,0.000392,-0.000088,0.000211,  41.114
    12.4,0.000306,0.000390,-0.000058,0.000189,  41.113
    12.6,0.000297,0.000385,-0.000072,0.000176,  41.113
    12.8,0.000284,0.000371,-0.000091,0.000162,  41.111
    13.0,0.000269,0.000359,-0.000110,0.000162,  41.106
    13.2,0.000274,0.000352,-0.000130,0.000149,  41.106
    13.4,0.000269,0.000343,-0.000167,0.000172,  41.109
    13.6,0.000256,0.000326,-0.000204,0.000172,  41.109
    13.8,0.000251,0.000325,-0.000235,0.000136,  41.109
    14.0,0.000242,0.000318,-0.000267,0.000172,  41.107
    14.2,0.000229,0.000309,-0.000291,0.000172,  41.105
    14.4,0.000223,0.000301,-0.000353,0.000136,  41.107
    14.6,0.000225,0.000289,-0.000437,0.000172,  41.100
    14.8,0.000215,0.000282,-0.000545,0.000172,  41.101
    15.0,0.000215,0.000268,-0.000822,0.000136,  41.105
    15.2,0.000222,0.000262,-0.001177,0.000158,  41.102
    15.4,0.000218,0.000260,-0.001651,0.000158,  41.105
    15.6,0.000215,0.000264,-0.001640,0.000136,  41.102
    15.8,0.000216,0.000259,-0.001439,0.000158,  41.104
    16.0,0.000212,0.000250,-0.001070,0.000158,  41.101
    16.2,0.000215,0.000253,-0.000962,0.000172,  41.099
    16.4,0.000218,0.000251,-0.000892,0.000158,  41.103
    16.6,0.000211,0.000249,-0.000874,0.000158,  41.097
    16.8,0.000215,0.000256,-0.000886,0.000158,  41.105
    17.0,0.000209,0.000255,-0.000953,0.000136,  41.103
    17.2,0.000205,0.000251,-0.001080,0.000172,  41.102
    17.4,0.000212,0.000249,-0.001234,0.000172,  41.106
    17.6,0.000216,0.000249,-0.001283,0.000136,  41.105
    17.8,0.000223,0.000245,-0.001308,0.000158,  41.101
    18.0,0.000234,0.000252,-0.001296,0.000158,  41.102
    18.2,0.000246,0.000250,-0.001315,0.000149,  41.109
    18.4,0.000254,0.000247,-0.001334,0.000185,  41.106
    18.6,0.000252,0.000247,-0.001353,0.000149,  41.110
    18.8,0.000253,0.000248,-0.001353,0.000149,  41.108
    19.0,0.000252,0.000249,-0.001366,0.000136,  41.105
    19.2,0.000242,0.000252,-0.001366,0.000136,  41.101
    19.4,0.000253,0.000248,-0.001325,0.000136,  41.107
    19.6,0.000253,0.000246,-0.001267,0.000158,  41.110
    19.8,0.000246,0.000252,-0.001184,0.000158,  41.114
    20.0,0.000250,0.000251,-0.001174,0.000136,  41.113
    20.2,0.000250,0.000248,-0.001193,0.000172,  41.111
    20.4,0.000250,0.000248,-0.001228,0.000185,  41.115
    20.6,0.000250,0.000245,-0.001258,0.000149,  41.111
    20.8,0.000247,0.000246,-0.001323,0.000198,  41.115
    21.0,0.000243,0.000249,-0.001413,0.000211,  41.120
    21.2,0.000236,0.000246,-0.001437,0.000176,  41.119
    21.4,0.000233,0.000241,-0.001462,0.000211,  41.119
    21.6,0.000226,0.000248,-0.001468,0.000211,  41.120
    21.8,0.000229,0.000247,-0.001481,0.000211,  41.123
    22.0,0.000236,0.000242,-0.001481,0.000220,  41.122
    22.2,0.000229,0.000241,-0.001479,0.000233,  41.117
    22.4,0.000229,0.000245,-0.001432,0.000211,  41.122
    22.6,0.000233,0.000242,-0.001367,0.000211,  41.123
    22.8,0.000223,0.000239,-0.001265,0.000224,  41.127
    23.0,0.000227,0.000233,-0.001247,0.000176,  41.127
    23.2,0.000231,0.000238,-0.001253,0.000198,  41.127
    23.4,0.000227,0.000242,-0.001300,0.000211,  41.132
    23.6,0.000240,0.000254,-0.001347,0.000176,  41.129
    23.8,0.000249,0.000256,-0.001425,0.000224,  41.131
    24.0,0.000255,0.000258,-0.001520,0.000224,  41.128
    24.2,0.000252,0.000258,-0.001507,0.000202,  41.130
    24.4,0.000253,0.000257,-0.001484,0.000224,  41.133
    24.6,0.000252,0.000257,-0.001426,0.000211,  41.137
    24.8,0.000255,0.000262,-0.001384,0.000176,  41.139
    25.0,0.000260,0.000267,-0.001367,0.000211,  41.136
    25.2,0.000256,0.000269,-0.001331,0.000176,  41.139
    25.4,0.000266,0.000273,-0.001307,0.000189,  41.139
    25.6,0.000263,0.000278,-0.001481,0.000189,  41.144
    25.8,0.000256,0.000277,-0.001749,0.000211,  41.145
    26.0,0.000266,0.000281,-0.002089,0.000224,  41.148
    26.2,0.000263,0.000284,-0.002060,0.000176,  41.147
    26.4,0.000259,0.000282,-0.001898,0.000198,  41.152
    26.6,0.000269,0.000280,-0.001605,0.000211,  41.149
    26.8,0.000272,0.000283,-0.001504,0.000162,  41.149
    27.0,0.000278,0.000284,-0.001444,0.000198,  41.153
    27.2,0.000281,0.000284,-0.001395,0.000211,  41.155
    27.4,0.000293,0.000285,-0.001370,0.000162,  41.165
    27.6,0.000289,0.000285,-0.001388,0.000198,  41.163
    27.8,0.000292,0.000290,-0.001435,0.000211,  41.168
    28.0,0.000292,0.000286,-0.001400,0.000176,  41.171
    28.2,0.000288,0.000293,-0.001323,0.000211,  41.172
    28.4,0.000298,0.000299,-0.001246,0.000224,  41.178
    28.6,0.000301,0.000310,-0.001246,0.000189,  41.177
    28.8,0.000301,0.000314,-0.001269,0.000224,  41.181
    29.0,0.000301,0.000312,-0.001327,0.000238,  41.185
    29.2,0.000302,0.000308,-0.001369,0.000189,  41.186
    29.4,0.000302,0.000311,-0.001416,0.000224,  41.189
    29.6,0.000308,0.000312,-0.001483,0.000238,  41.190
    29.8,0.000297,0.000315,-0.001692,0.000189,  41.195
    30.0,0.000303,0.000315,-0.001997,0.000224,  41.191
    30.2,0.000296,0.000318,-0.002391,0.000238,  41.196
    30.4,0.000296,0.000318,-0.002342,0.000189,  41.201
    30.6,0.000300,0.000318,-0.002144,0.000224,  41.200
    30.8,0.000299,0.000318,-0.001792,0.000202,  41.205
    31.0,0.000309,0.000324,-0.001655,0.000202,  41.211
    31.2,0.000316,0.000321,-0.001529,0.000202,  41.219
    31.4,0.000321,0.000321,-0.001444,0.000180,  41.226
    31.6,0.000330,0.000322,-0.001379,0.000202,  41.226
    31.8,0.000340,0.000324,-0.001337,0.000189,  41.229
    32.0,0.000349,0.000325,-0.001313,0.000202,  41.236
    32.2,0.000357,0.000329,-0.001313,0.000189,  41.236
    32.4,0.000373,0.000340,-0.001343,0.000224,  41.241
    32.6,0.000378,0.000347,-0.001408,0.000224,  41.245
    32.8,0.000383,0.000359,-0.001402,0.000202,  41.250
    33.0,0.000382,0.000363,-0.001348,0.000224,  41.248
    33.2,0.000394,0.000370,-0.001294,0.000238,  41.250
    33.4,0.000400,0.000383,-0.001264,0.000215,  41.254
    33.6,0.000412,0.000387,-0.001246,0.000251,  41.261
    33.8,0.000417,0.000393,-0.001239,0.000215,  41.262
    34.0,0.000426,0.000405,-0.001239,0.000180,  41.261
    34.2,0.000435,0.000406,-0.001245,0.000215,  41.262
    34.4,0.000449,0.000417,-0.001243,0.000215,  41.268
    34.6,0.000461,0.000424,-0.001266,0.000193,  41.264
    34.8,0.000482,0.000433,-0.001206,0.000242,  41.265
    35.0,0.000500,0.000440,-0.001110,0.000242,  41.266
    35.2,0.000513,0.000453,-0.001021,0.000219,  41.272
    35.4,0.000537,0.000466,-0.001004,0.000281,  41.273
    35.6,0.000551,0.000487,-0.001009,0.000268,  41.273
    35.8,0.000564,0.000499,-0.001050,0.000281,  41.278
    36.0,0.000582,0.000510,-0.001055,0.000281,  41.277
    36.2,0.000595,0.000527,-0.001060,0.000317,  41.277
    36.4,0.000619,0.000545,-0.001059,0.000330,  41.281
    36.6,0.000644,0.000563,-0.000992,0.000294,  41.283
    36.8,0.000651,0.000578,-0.000895,0.000343,  41.284
    37.0,0.000664,0.000603,-0.000800,0.000356,  41.281
    37.2,0.000670,0.000630,-0.001017,0.000321,  41.284
    37.4,0.000677,0.000645,-0.001368,0.000356,  41.285
    37.6,0.000693,0.000668,-0.001888,0.000347,  41.289
    37.8,0.000705,0.000690,-0.002229,0.000347,  41.286
    38.0,0.000707,0.000708,-0.002539,0.000347,  41.288
    38.2,0.000709,0.000723,-0.002831,0.000360,  41.291
    38.4,0.000709,0.000744,-0.002736,0.000374,  41.289
    38.6,0.000707,0.000753,-0.002432,0.000396,  41.289
    38.8,0.000704,0.000766,-0.001905,0.000396,  41.292
    39.0,0.000692,0.000769,-0.001654,0.000374,  41.293
    39.2,0.000684,0.000772,-0.001445,0.000396,  41.290
    39.4,0.000679,0.000778,-0.001259,0.000383,  41.291
    39.6,0.000673,0.000782,-0.001152,0.000383,  41.295
    39.8,0.000674,0.000779,-0.001086,0.000405,  41.293
    40.0,0.000661,0.000770,-0.001079,0.000392,  41.292
    40.2,0.000643,0.000762,-0.001049,0.000356,  41.293
    40.4,0.000631,0.000757,-0.001061,0.000370,  41.298
    40.6,0.000615,0.000743,-0.001084,0.000370,  41.295
    40.8,0.000608,0.000731,-0.001059,0.000321,  41.295
    41.0,0.000600,0.000722,-0.001066,0.000343,  41.301
    41.2,0.000585,0.000711,-0.001047,0.000356,  41.295
    41.4,0.000586,0.000697,-0.001161,0.000308,  41.299
    41.6,0.000577,0.000689,-0.001349,0.000330,  41.296
    41.8,0.000561,0.000686,-0.001602,0.000330,  41.300
    42.0,0.000562,0.000681,-0.001586,0.000294,  41.297
    42.2,0.000554,0.000665,-0.001442,0.000317,  41.299
    42.4,0.000538,0.000653,-0.001191,0.000317,  41.299
    42.6,0.000536,0.000639,-0.001083,0.000317,  41.299
    42.8,0.000525,0.000625,-0.000983,0.000304,  41.297
    43.0,0.000513,0.000612,-0.000893,0.000304,  41.300
    43.2,0.000501,0.000604,-0.000835,0.000304,  41.298
    43.4,0.000491,0.000600,-0.000823,0.000304,  41.302
    43.6,0.000472,0.000591,-0.000870,0.000313,  41.302
    43.8,0.000454,0.000585,-0.000960,0.000313,  41.298
    44.0,0.000442,0.000576,-0.000972,0.000277,  41.299
    44.2,0.000430,0.000567,-0.000985,0.000264,  41.299
    44.4,0.000424,0.000551,-0.000986,0.000251,  41.299
    44.6,0.000428,0.000538,-0.001016,0.000215,  41.298
    44.8,0.000418,0.000527,-0.001064,0.000251,  41.298
    45.0,0.000409,0.000515,-0.001129,0.000238,  41.293
    45.2,0.000410,0.000501,-0.001106,0.000202,  41.295
    45.4,0.000404,0.000487,-0.001041,0.000251,  41.298
    45.6,0.000399,0.000479,-0.000933,0.000251,  41.293
    45.8,0.000404,0.000465,-0.000898,0.000215,  41.292
    46.0,0.000395,0.000455,-0.000886,0.000251,  41.292
    46.2,0.000382,0.000453,-0.000898,0.000251,  41.289
    46.4,0.000381,0.000451,-0.000940,0.000202,  41.283
    46.6,0.000375,0.000446,-0.001012,0.000224,  41.281
    46.8,0.000362,0.000445,-0.001114,0.000238,  41.282
    47.0,0.000363,0.000444,-0.001156,0.000189,  41.280
    47.2,0.000357,0.000435,-0.001174,0.000211,  41.276
    47.4,0.000354,0.000431,-0.001197,0.000224,  41.271
    47.6,0.000352,0.000422,-0.001156,0.000176,  41.268
    47.8,0.000349,0.000408,-0.001086,0.000198,  41.268
    48.0,0.000336,0.000397,-0.000979,0.000211,  41.263
    48.2,0.000324,0.000388,-0.001056,0.000162,  41.264
    48.4,0.000313,0.000376,-0.001223,0.000198,  41.269
    48.6,0.000307,0.000377,-0.001454,0.000211,  41.261
    48.8,0.000304,0.000376,-0.001448,0.000162,  41.260
    49.0,0.000311,0.000363,-0.001360,0.000198,  41.257
    49.2,0.000298,0.000358,-0.001163,0.000198,  41.250
    49.4,0.000284,0.000353,-0.001170,0.000162,  41.249
    49.6,0.000272,0.000346,-0.001218,0.000185,  41.250
    49.8,0.000262,0.000340,-0.001325,0.000185,  41.248
    50.0,0.000266,0.000335,-0.001571,0.000149,  41.247
    50.2,0.000266,0.000326,-0.001923,0.000172,  41.244
    50.4,0.000259,0.000324,-0.002382,0.000172,  41.241
    50.6,0.000266,0.000316,-0.002360,0.000136,  41.238
    50.8,0.000263,0.000308,-0.002146,0.000172,  41.238
    51.0,0.000256,0.000303,-0.001741,0.000172,  41.237
    51.2,0.000256,0.000303,-0.001646,0.000172,  41.236
    51.4,0.000254,0.000291,-0.001585,0.000172,  41.234
    51.6,0.000251,0.000289,-0.001621,0.000172,  41.234
    51.8,0.000251,0.000284,-0.001692,0.000172,  41.240
    52.0,0.000262,0.000281,-0.001650,0.000136,  41.233
    52.2,0.000249,0.000271,-0.001595,0.000158,  41.231
    52.4,0.000240,0.000273,-0.001548,0.000158,  41.218
    52.6,0.000231,0.000273,-0.001495,0.000136,  41.221
    52.8,0.000229,0.000269,-0.001460,0.000172,  41.223
    53.0,0.000235,0.000273,-0.001419,0.000172,  41.214
    53.2,0.000249,0.000271,-0.001407,0.000136,  41.218
    53.4,0.000252,0.000262,-0.001442,0.000158,  41.216
    53.6,0.000235,0.000261,-0.001488,0.000158,  41.216
    53.8,0.000230,0.000262,-0.001446,0.000136,  41.215
    54.0,0.000233,0.000257,-0.001406,0.000158,  41.215
    54.2,0.000223,0.000258,-0.001330,0.000158,  41.217
    54.4,0.000227,0.000259,-0.001325,0.000136,  41.219
    54.6,0.000223,0.000261,-0.001367,0.000172,  41.219
    54.8,0.000223,0.000260,-0.001426,0.000172,  41.218
    55.0,0.000223,0.000257,-0.001458,0.000149,  41.218
    55.2,0.000223,0.000252,-0.001488,0.000185,  41.220
    55.4,0.000227,0.000249,-0.001505,0.000185,  41.217
    55.6,0.000224,0.000252,-0.001530,0.000162,  41.211
    55.8,0.000225,0.000249,-0.001572,0.000185,  41.214
    56.0,0.000228,0.000245,-0.001607,0.000185,  41.213
    56.2,0.000221,0.000248,-0.001542,0.000162,  41.217
    56.4,0.000224,0.000241,-0.001442,0.000185,  41.222
    56.6,0.000227,0.000239,-0.001306,0.000185,  41.218
    56.8,0.000230,0.000242,-0.001301,0.000185,  41.214
    57.0,0.000237,0.000240,-0.001336,0.000194,  41.212
    57.2,0.000241,0.000234,-0.001438,0.000194,  41.200
    57.4,0.000246,0.000239,-0.001905,0.000185,  41.200
    57.6,0.000252,0.000234,-0.002591,0.000185,  41.205
    57.8,0.000255,0.000237,-0.003489,0.000185,  41.206
    58.0,0.000251,0.000237,-0.003537,0.000162,  41.201
    58.2,0.000243,0.000229,-0.003263,0.000185,  41.201
    58.4,0.000239,0.000232,-0.002690,0.000198,  41.198
    58.6,0.000232,0.000233,-0.002494,0.000162,  41.202
    58.8,0.000229,0.000233,-0.002333,0.000198,  41.199
    59.0,0.000219,0.000234,-0.002213,0.000198,  41.192
    59.2,0.000212,0.000240,-0.002094,0.000162,  41.195
    59.4,0.000219,0.000244,-0.001980,0.000198,  41.202
    59.6,0.000216,0.000243,-0.001903,0.000185,  41.196
    59.8,0.000213,0.000245,-0.001844,0.000185,  41.202
    60.0,0.000220,0.000237,-0.001807,0.000185,  41.202
    60.2,0.000220,0.000237,-0.001782,0.000172,  41.199
    60.4,0.000205,0.000236,-0.001788,0.000172,  41.196
    60.6,0.000203,0.000231,-0.001765,0.000172,  41.198
    60.8,0.000200,0.000229,-0.001759,0.000207,  41.198
    61.0,0.000190,0.000234,-0.001730,0.000207,  41.199
    61.2,0.000191,0.000230,-0.001665,0.000207,  41.201
    61.4,0.000197,0.000226,-0.001582,0.000207,  41.201
    61.6,0.000202,0.000219,-0.001480,0.000207,  41.203
    61.8,0.000216,0.000217,-0.001468,0.000158,  41.202
    62.0,0.000228,0.000204,-0.001491,0.000145,  41.203
    62.2,0.000237,0.000207,-0.001554,0.000145,  41.194
    62.4,0.000249,0.000199,-0.001567,0.000145,  41.205
    62.6,0.000255,0.000201,-0.001586,0.000181,  41.201
    62.8,0.000248,0.000208,-0.001600,0.000181,  41.207
    63.0,0.000245,0.000218,-0.001612,0.000181,  41.205
    63.2,0.000245,0.000224,-0.001636,0.000181,  41.204
    63.4,0.000252,0.000229,-0.001654,0.000181,  41.210
    63.6,0.000259,0.000240,-0.001668,0.000172,  41.207
    63.8,0.000259,0.000245,-0.001663,0.000185,  41.206
    64.0,0.000245,0.000242,-0.001638,0.000198,  41.208
    64.2,0.000252,0.000245,-0.001591,0.000176,  41.206
    64.4,0.000238,0.000247,-0.001562,0.000224,  41.209
    64.6,0.000238,0.000247,-0.001496,0.000238,  41.207
    64.8,0.000235,0.000250,-0.001478,0.000224,  41.209
    65.0,0.000242,0.000254,-0.001483,0.000247,  41.209
    65.2,0.000248,0.000249,-0.001506,0.000260,  41.203
    65.4,0.000248,0.000246,-0.001501,0.000211,  41.204
    65.6,0.000248,0.000245,-0.001477,0.000198,  41.204
    65.8,0.000248,0.000245,-0.001433,0.000211,  41.203
    66.0,0.000245,0.000242,-0.001487,0.000162,  41.203
    66.2,0.000239,0.000237,-0.001552,0.000198,  41.202
    66.4,0.000239,0.000242,-0.001659,0.000211,  41.204
    66.6,0.000234,0.000247,-0.001654,0.000162,  41.203
    66.8,0.000241,0.000241,-0.001600,0.000198,  41.196
    67.0,0.000243,0.000238,-0.001535,0.000198,  41.198
    67.2,0.000237,0.000241,-0.001512,0.000176,  41.197
    67.4,0.000243,0.000241,-0.001506,0.000198,  41.199
    67.6,0.000246,0.000237,-0.001506,0.000198,  41.198
    67.8,0.000235,0.000241,-0.001519,0.000198,  41.196
    68.0,0.000235,0.000238,-0.001536,0.000185,  41.195
    68.2,0.000238,0.000241,-0.001561,0.000185,  41.195
    68.4,0.000229,0.000238,-0.001577,0.000185,  41.199
    68.6,0.000230,0.000238,-0.001619,0.000149,  41.197
    68.8,0.000233,0.000235,-0.001672,0.000172,  41.198
    69.0,0.000223,0.000243,-0.001744,0.000172,  41.194
    69.2,0.000227,0.000241,-0.001773,0.000136,  41.193
    69.4,0.000230,0.000240,-0.001791,0.000172,  41.194
    69.6,0.000223,0.000238,-0.001803,0.000172,  41.190
    69.8,0.000233,0.000236,-0.002126,0.000136,  41.190
    70.0,0.000235,0.000239,-0.002621,0.000158,  41.186
    70.2,0.000223,0.000246,-0.003264,0.000158,  41.190
    70.4,0.000227,0.000244,-0.003217,0.000149,  41.189
    70.6,0.000230,0.000249,-0.002920,0.000185,  41.186
    70.8,0.000226,0.000241,-0.002360,0.000185,  41.188
    71.0,0.000238,0.000239,-0.002157,0.000162,  41.190
    71.2,0.000238,0.000236,-0.002026,0.000185,  41.183
    71.4,0.000229,0.000240,-0.001966,0.000185,  41.187
    71.6,0.000230,0.000247,-0.001882,0.000162,  41.180
    71.8,0.000230,0.000244,-0.001835,0.000185,  41.184
    72.0,0.000220,0.000241,-0.001835,0.000185,  41.180
    72.2,0.000221,0.000241,-0.001799,0.000162,  41.183
    72.4,0.000218,0.000236,-0.001777,0.000185,  41.180
    72.6,0.000215,0.000239,-0.001740,0.000198,  41.183
    72.8,0.000215,0.000237,-0.001710,0.000162,  41.182
    73.0,0.000215,0.000233,-0.001698,0.000198,  41.184
    73.2,0.000215,0.000227,-0.001698,0.000198,  41.181
    73.4,0.000202,0.000228,-0.001698,0.000198,  41.179
    73.6,0.000209,0.000226,-0.001698,0.000220,  41.180
    73.8,0.000209,0.000221,-0.001728,0.000220,  41.184
    74.0,0.000206,0.000226,-0.001722,0.000198,  41.186
    74.2,0.000213,0.000221,-0.001710,0.000185,  41.184
    74.4,0.000213,0.000218,-0.001685,0.000185,  41.184
    74.6,0.000210,0.000216,-0.001698,0.000149,  41.183
    74.8,0.000212,0.000216,-0.001715,0.000172,  41.182
    75.0,0.000212,0.000214,-0.001763,0.000172,  41.182
    75.2,0.000198,0.000219,-0.001764,0.000136,  41.187
    75.4,0.000192,0.000215,-0.001729,0.000172,  41.183
    75.6,0.000192,0.000213,-0.001687,0.000172,  41.186
    75.8,0.000191,0.000216,-0.001687,0.000136,  41.186
    76.0,0.000198,0.000209,-0.001724,0.000172,  41.188
    76.2,0.000194,0.000206,-0.001764,0.000172,  41.181
    76.4,0.000190,0.000201,-0.001799,0.000172,  41.185
    76.6,0.000190,0.000199,-0.001847,0.000172,  41.186
    76.8,0.000183,0.000196,-0.001919,0.000172,  41.186
    77.0,0.000190,0.000195,-0.002003,0.000172,  41.187
    77.2,0.000191,0.000197,-0.002236,0.000136,  41.185
    77.4,0.000191,0.000194,-0.002546,0.000172,  41.189
    77.6,0.000191,0.000204,-0.002934,0.000172,  41.188
    77.8,0.000192,0.000204,-0.002894,0.000149,  41.190
    78.0,0.000192,0.000201,-0.002673,0.000185,  41.190
    78.2,0.000188,0.000205,-0.002292,0.000185,  41.192
    78.4,0.000192,0.000203,-0.002120,0.000149,  41.189
    78.6,0.000192,0.000200,-0.001983,0.000172,  41.193
    78.8,0.000188,0.000205,-0.001876,0.000172,  41.191
    79.0,0.000195,0.000207,-0.001827,0.000136,  41.192
    79.2,0.000195,0.000202,-0.001845,0.000172,  41.190
    79.4,0.000185,0.000202,-0.001920,0.000172,  41.187
    79.6,0.000189,0.000203,-0.001866,0.000136,  41.190
    79.8,0.000189,0.000202,-0.001796,0.000158,  41.191
    80.0,0.000192,0.000201,-0.001701,0.000158,  41.190
    80.2,0.000202,0.000201,-0.001659,0.000172,  41.187
    80.4,0.000202,0.000200,-0.001666,0.000194,  41.191
    80.6,0.000212,0.000205,-0.001689,0.000194,  41.189
    80.8,0.000202,0.000203,-0.001713,0.000207,  41.187
    81.0,0.000199,0.000200,-0.001755,0.000194,  41.183
    81.2,0.000196,0.000201,-0.001803,0.000194,  41.174
    81.4,0.000186,0.000200,-0.001833,0.000207,  41.175
    81.6,0.000180,0.000200,-0.001862,0.000207,  41.176
    81.8,0.000180,0.000201,-0.001904,0.000207,  41.177
    82.0,0.000177,0.000202,-0.001882,0.000207,  41.175
    82.2,0.000187,0.000201,-0.001803,0.000194,  41.174
    82.4,0.000180,0.000213,-0.001720,0.000194,  41.175
    82.6,0.000174,0.000215,-0.001715,0.000172,  41.177
    82.8,0.000162,0.000213,-0.001732,0.000158,  41.180
    83.0,0.000158,0.000210,-0.001773,0.000158,  41.173
    83.2,0.000165,0.000203,-0.001934,0.000123,  41.178
    83.4,0.000168,0.000205,-0.002173,0.000145,  41.176
    83.6,0.000168,0.000199,-0.002488,0.000132,  41.176
    83.8,0.000172,0.000201,-0.002488,0.000132,  41.177
    84.0,0.000180,0.000201,-0.002374,0.000167,  41.173
    84.2,0.000180,0.000192,-0.002166,0.000167,  41.177
    84.4,0.000176,0.000188,-0.002083,0.000132,  41.175
    84.6,0.000180,0.000186,-0.001994,0.000167,  41.176
    84.8,0.000180,0.000184,-0.001934,0.000167,  41.177
    85.0,0.000176,0.000192,-0.001862,0.000167,  41.176
    85.2,0.000183,0.000190,-0.001815,0.000132,  41.177
    85.4,0.000187,0.000194,-0.001768,0.000132,  41.178
    85.6,0.000184,0.000198,-0.001738,0.000132,  41.172
    85.8,0.000195,0.000193,-0.001696,0.000096,  41.173
    86.0,0.000185,0.000192,-0.001671,0.000132,  41.175
    86.2,0.000185,0.000188,-0.001640,0.000145,  41.179
    86.4,0.000178,0.000192,-0.001640,0.000110,  41.175
    86.6,0.000174,0.000184,-0.001652,0.000145,  41.178
    86.8,0.000160,0.000188,-0.001663,0.000145,  41.177
    87.0,0.000160,0.000188,-0.001770,0.000110,  41.179
    87.2,0.000163,0.000185,-0.001961,0.000132,  41.179
    87.4,0.000166,0.000187,-0.002205,0.000119,  41.177
    87.6,0.000176,0.000184,-0.002192,0.000083,  41.181
    87.8,0.000181,0.000186,-0.002103,0.000132,  41.185
    88.0,0.000174,0.000189,-0.001912,0.000132,  41.178
    88.2,0.000174,0.000189,-0.001810,0.000096,  41.179
    88.4,0.000177,0.000189,-0.001721,0.000132,  41.180
    88.6,0.000174,0.000199,-0.001619,0.000145,  41.179
    88.8,0.000181,0.000203,-0.001582,0.000110,  41.182
    89.0,0.000184,0.000195,-0.001593,0.000145,  41.180
    89.2,0.000177,0.000201,-0.001633,0.000145,  41.181
    89.4,0.000177,0.000203,-0.001621,0.000145,  41.185
    89.6,0.000180,0.000208,-0.001614,0.000154,  41.186
    89.8,0.000176,0.000207,-0.001621,0.000154,  41.190
    90.0,0.000183,0.000207,-0.001603,0.000154,  41.187
    90.2,0.000183,0.000206,-0.001584,0.000167,  41.186
    90.4,0.000196,0.000210,-0.001572,0.000181,  41.182
    90.6,0.000183,0.000205,-0.001572,0.000194,  41.187
    90.8,0.000190,0.000207,-0.001572,0.000194,  41.187
    91.0,0.000183,0.000208,-0.001590,0.000207,  41.189
    91.2,0.000180,0.000205,-0.001590,0.000220,  41.188
    91.4,0.000170,0.000203,-0.001596,0.000194,  41.189
    91.6,0.000166,0.000204,-0.001590,0.000181,  41.192
    91.8,0.000170,0.000199,-0.001565,0.000181,  41.193
    92.0,0.000168,0.000194,-0.001547,0.000167,  41.194
    92.2,0.000164,0.000195,-0.001528,0.000154,  41.191
    92.4,0.000168,0.000203,-0.001463,0.000154,  41.188
    92.6,0.000168,0.000205,-0.001361,0.000167,  41.194
    92.8,0.000164,0.000195,-0.001266,0.000167,  41.194
    93.0,0.000170,0.000199,-0.001214,0.000132,  41.190
    93.2,0.000173,0.000201,-0.001159,0.000119,  41.194
    93.4,0.000166,0.000196,-0.001129,0.000132,  41.193
    93.6,0.000170,0.000199,-0.001159,0.000096,  41.188
    93.8,0.000165,0.000196,-0.001219,0.000132,  41.192
    94.0,0.000165,0.000193,-0.001314,0.000145,  41.195
    94.2,0.000172,0.000192,-0.001319,0.000110,  41.196
    94.4,0.000173,0.000192,-0.001331,0.000145,  41.199
    94.6,0.000173,0.000189,-0.001319,0.000132,  41.206
    94.8,0.000176,0.000192,-0.001446,0.000132,  41.204
    95.0,0.000173,0.000187,-0.001607,0.000132,  41.209
    95.2,0.000169,0.000188,-0.001835,0.000132,  41.210
    95.4,0.000174,0.000194,-0.002116,0.000132,  41.212
    95.6,0.000173,0.000191,-0.002086,0.000096,  41.211
    95.8,0.000176,0.000200,-0.001972,0.000132,  41.206
    96.0,0.000176,0.000210,-0.001769,0.000132,  41.213
    96.2,0.000186,0.000212,-0.001679,0.000096,  41.216
    96.4,0.000189,0.000210,-0.001607,0.000132,  41.215
    96.6,0.000185,0.000210,-0.001553,0.000132,  41.217
    96.8,0.000195,0.000210,-0.002116,0.000096,  41.219
    97.0,0.000201,0.000214,-0.002994,0.000132,  41.219
    97.2,0.000206,0.000216,-0.004195,0.000145,  41.219
    97.4,0.000216,0.000216,-0.004362,0.000123,  41.218
    97.6,0.000215,0.000215,-0.004153,0.000158,  41.215
    97.8,0.000218,0.000212,-0.003575,0.000172,  41.220
    98.0,0.000214,0.000212,-0.003261,0.000149,  41.218
    98.2,0.000213,0.000216,-0.002868,0.000172,  41.223
    98.4,0.000226,0.000221,-0.002396,0.000172,  41.223
    98.6,0.000231,0.000226,-0.002128,0.000149,  41.224
    98.8,0.000234,0.000226,-0.001912,0.000185,  41.227
    99.0,0.000244,0.000231,-0.001762,0.000185,  41.225
    99.2,0.000254,0.000237,-0.001588,0.000162,  41.226
    99.4,0.000260,0.000239,-0.001468,0.000185,  41.223
    99.6,0.000256,0.000237,-0.001372,0.000162,  41.225
    99.8,0.000256,0.000248,-0.001277,0.000162,  41.227
   100.0,0.000259,0.000247,-0.001193,0.000162,  41.225
   100.2,0.000252,0.000255,-0.001138,0.000140,  41.228
   100.4,0.000248,0.000259,-0.001073,0.000162,  41.225
   100.6,0.000248,0.000258,-0.001006,0.000162,  41.225
   100.8,0.000241,0.000267,-0.000945,0.000162,  41.228
   101.0,0.000245,0.000271,-0.000950,0.000185,  41.229
   101.2,0.000249,0.000270,-0.000998,0.000207,  41.228
   101.4,0.000245,0.000274,-0.001086,0.000207,  41.228
   101.6,0.000249,0.000277,-0.001109,0.000207,  41.227
   101.8,0.000246,0.000272,-0.001151,0.000207,  41.228
   102.0,0.000249,0.000273,-0.001174,0.000207,  41.227
   102.2,0.000249,0.000275,-0.001150,0.000207,  41.230
   102.4,0.000259,0.000275,-0.001120,0.000207,  41.232
   102.6,0.000264,0.000271,-0.001060,0.000207,  41.228
   102.8,0.000258,0.000270,-0.001048,0.000172,  41.230
   103.0,0.000267,0.000269,-0.001048,0.000172,  41.233
   103.2,0.000270,0.000277,-0.001053,0.000172,  41.233
   103.4,0.000266,0.000279,-0.001005,0.000136,  41.233
   103.6,0.000273,0.000277,-0.000946,0.000158,  41.235
   103.8,0.000276,0.000282,-0.000854,0.000158,  41.235
   104.0,0.000275,0.000279,-0.000788,0.000172,  41.232
   104.2,0.000291,0.000277,-0.000752,0.000172,  41.237
   104.4,0.000296,0.000279,-0.000698,0.000185,  41.235
   104.6,0.000292,0.000282,-0.000668,0.000185,  41.237
   104.8,0.000305,0.000284,-0.000649,0.000162,  41.234
   105.0,0.000311,0.000283,-0.000672,0.000185,  41.235
   105.2,0.000307,0.000285,-0.000681,0.000185,  41.236
   105.4,0.000314,0.000292,-0.000853,0.000162,  41.236
   105.6,0.000313,0.000294,-0.001122,0.000185,  41.233
   105.8,0.000316,0.000294,-0.001455,0.000185,  41.233
   106.0,0.000318,0.000294,-0.001460,0.000162,  41.234
   106.2,0.000317,0.000294,-0.001332,0.000185,  41.234
   106.4,0.000327,0.000297,-0.001091,0.000185,  41.236
   106.6,0.000327,0.000299,-0.001139,0.000149,  41.239
   106.8,0.000326,0.000292,-0.001264,0.000172,  41.234
   107.0,0.000339,0.000298,-0.001466,0.000172,  41.233
   107.2,0.000345,0.000296,-0.001292,0.000172,  41.233
   107.4,0.000350,0.000301,-0.000960,0.000207,  41.237
   107.6,0.000356,0.000302,-0.000466,0.000207,  41.237
   107.8,0.000369,0.000303,-0.000260,0.000207,  41.238
   108.0,0.000375,0.000303,-0.000132,0.000194,  41.235
   108.2,0.000377,0.000303,-0.000081,0.000194,  41.237
   108.4,0.000395,0.000308,-0.000092,0.000194,  41.237
   108.6,0.000404,0.000305,-0.000168,0.000181,  41.234
   108.8,0.000412,0.000307,-0.000328,0.000181,  41.235
   109.0,0.000407,0.000312,-0.000207,0.000181,  41.237
   109.2,0.000416,0.000312,0.000055,0.000181,  41.237
   109.4,0.000424,0.000314,0.000407,0.000167,  41.231
   109.6,0.000448,0.000322,0.000621,0.000167,  41.234
   109.8,0.000475,0.000328,0.000841,0.000167,  41.235
   110.0,0.000496,0.000332,0.001024,0.000154,  41.236
   110.2,0.000523,0.000343,0.001215,0.000154,  41.232
   110.4,0.000550,0.000354,0.001381,0.000154,  41.234
   110.6,0.000573,0.000360,0.001536,0.000167,  41.232
   110.8,0.000590,0.000372,0.001684,0.000167,  41.232
   111.0,0.000610,0.000376,0.001839,0.000154,  41.231
   111.2,0.000639,0.000388,0.001989,0.000167,  41.236
   111.4,0.000661,0.000407,0.002187,0.000132,  41.232
   111.6,0.000697,0.000413,0.002402,0.000132,  41.227
   111.8,0.000729,0.000425,0.002655,0.000145,  41.227
   112.0,0.000751,0.000440,0.002885,0.000110,  41.228
   112.2,0.000790,0.000452,0.003115,0.000145,  41.225
   112.4,0.000815,0.000465,0.003333,0.000132,  41.229
   112.6,0.000850,0.000482,0.003544,0.000145,  41.224
   112.8,0.000885,0.000498,0.003755,0.000145,  41.229
   113.0,0.000923,0.000517,0.003953,0.000158,  41.225
   113.2,0.000963,0.000536,0.004145,0.000172,  41.229
   113.4,0.001014,0.000556,0.004491,0.000136,  41.223
   113.6,0.001056,0.000573,0.004881,0.000145,  41.226
   113.8,0.001106,0.000593,0.005328,0.000145,  41.223
   114.0,0.001152,0.000615,0.005621,0.000123,  41.225
   114.2,0.001199,0.000633,0.005886,0.000158,  41.224
   114.4,0.001248,0.000653,0.006083,0.000158,  41.220
   114.6,0.001296,0.000679,0.006438,0.000136,  41.221
   114.8,0.001339,0.000704,0.006868,0.000158,  41.218
   115.0,0.001384,0.000733,0.007355,0.000158,  41.217
   115.2,0.001436,0.000755,0.007829,0.000136,  41.219
   115.4,0.001488,0.000777,0.008335,0.000158,  41.218
   115.6,0.001553,0.000798,0.008893,0.000158,  41.218
   115.8,0.001621,0.000813,0.009401,0.000136,  41.219
   116.0,0.001682,0.000834,0.009904,0.000158,  41.221
   116.2,0.001750,0.000865,0.010403,0.000158,  41.218
   116.4,0.001818,0.000892,0.010932,0.000123,  41.217
   116.6,0.001882,0.000917,0.011482,0.000145,  41.214
   116.8,0.001949,0.000949,0.012034,0.000145,  41.212
   117.0,0.002019,0.000973,0.012186,0.000110,  41.212
   117.2,0.002080,0.001002,0.012159,0.000145,  41.209
   117.4,0.002138,0.001044,0.011921,0.000145,  41.200
   117.6,0.002197,0.001086,0.012552,0.000110,  41.199
   117.8,0.002245,0.001122,0.013540,0.000145,  41.196
   118.0,0.002315,0.001161,0.014863,0.000145,  41.192
   118.2,0.002384,0.001206,0.015744,0.000110,  41.195
   118.4,0.002476,0.001246,0.016598,0.000145,  41.195
   118.6,0.002555,0.001289,0.017422,0.000145,  41.193
   118.8,0.002636,0.001328,0.017812,0.000110,  41.198
   119.0,0.002719,0.001368,0.017975,0.000145,  41.191
   119.2,0.002801,0.001411,0.017898,0.000145,  41.190
   119.4,0.002885,0.001454,0.018503,0.000110,  41.188
   119.6,0.002967,0.001494,0.019330,0.000145,  41.180
   119.8,0.003058,0.001533,0.020388,0.000132,  41.182
   120.0,0.003148,0.001582,0.021418,0.000096,  41.181
   120.2,0.003242,0.001626,0.022506,0.000132,  41.179
   120.4,0.003338,0.001666,0.023708,0.000119,  41.175
   120.6,0.003435,0.001712,0.024547,0.000083,  41.175
   120.8,0.003538,0.001756,0.025207,0.000119,  41.173
   121.0,0.003637,0.001806,0.025732,0.000106,  41.169
   121.2,0.003730,0.001863,0.026420,0.000083,  41.167
   121.4,0.003836,0.001914,0.027115,0.000106,  41.164
   121.6,0.003945,0.001966,0.027825,0.000119,  41.157
   121.8,0.004042,0.002030,0.028677,0.000132,  41.161
   122.0,0.004153,0.002086,0.029609,0.000154,  41.152
   122.2,0.004268,0.002135,0.030620,0.000141,  41.154
   122.4,0.004381,0.002189,0.031719,0.000154,  41.147
   122.6,0.004502,0.002250,0.032936,0.000106,  41.141
   122.8,0.004616,0.002309,0.034236,0.000092,  41.143
   123.0,0.004727,0.002368,0.035633,0.000106,  41.135
   123.2,0.004845,0.002427,0.036790,0.000057,  41.137
   123.4,0.004962,0.002491,0.037856,0.000079,  41.130
   123.6,0.005073,0.002555,0.038844,0.000092,  41.127
   123.8,0.005194,0.002613,0.040002,0.000044,  41.124
   124.0,0.005305,0.002662,0.041183,0.000079,  41.111
   124.2,0.005422,0.002711,0.042428,0.000079,  41.108
   124.4,0.005540,0.002752,0.043563,0.000066,  41.098
   124.6,0.005656,0.002802,0.044638,0.000088,  41.099
   124.8,0.005786,0.002866,0.045676,0.000088,  41.094
   125.0,0.005913,0.002933,0.046819,0.000066,  41.089
   125.2,0.006039,0.002995,0.047992,0.000066,  41.087
   125.4,0.006166,0.003056,0.049182,0.000066,  41.082
   125.6,0.006293,0.003124,0.050334,0.000030,  41.074
   125.8,0.006402,0.003186,0.051490,0.000053,  41.071
   126.0,0.006502,0.003254,0.052634,0.000053,  41.067
   126.2,0.006594,0.003324,0.053886,0.000017,  41.063
   126.4,0.006676,0.003390,0.055191,0.000040,  41.057
   126.6,0.006800,0.003457,0.056555,0.000040,  41.057
   126.8,0.006935,0.003535,0.057819,0.000004,  41.046
   127.0,0.007090,0.003599,0.059029,0.000026,  41.046
   127.2,0.007212,0.003668,0.060201,0.000013,  41.039
   127.4,0.007342,0.003737,0.061496,-0.000036,  41.019
   127.6,0.007459,0.003805,0.062852,-0.000013,  41.017
   127.8,0.007589,0.003878,0.064249,-0.000013,  41.007
   128.0,0.007713,0.003957,0.065513,-0.000062,  41.004
   128.2,0.007841,0.004033,0.066759,-0.000013,  41.000
   128.4,0.007968,0.004104,0.067972,0.000000,  40.997
   128.6,0.008088,0.004175,0.069233,-0.000049,  40.993
   128.8,0.008225,0.004247,0.070505,-0.000026,  40.987
   129.0,0.008345,0.004322,0.071758,-0.000026,  40.983
   129.2,0.008473,0.004396,0.073104,-0.000062,  40.970
   129.4,0.008597,0.004460,0.074476,-0.000026,  40.962
   129.6,0.008730,0.004527,0.075890,-0.000040,  40.956
   129.8,0.008866,0.004595,0.077183,-0.000053,  40.956
   130.0,0.009006,0.004664,0.078441,-0.000030,  40.943
   130.2,0.009137,0.004733,0.079644,-0.000030,  40.924
   130.4,0.009257,0.004800,0.080724,-0.000030,  40.918
   130.6,0.009391,0.004864,0.081740,-0.000030,  40.911
   130.8,0.009522,0.004937,0.082647,-0.000044,  40.905
   131.0,0.009639,0.005012,0.083466,-0.000044,  40.894
   131.2,0.009774,0.005079,0.084615,-0.000044,  40.885
   131.4,0.009900,0.005145,0.085850,-0.000057,  40.876
   131.6,0.010034,0.005219,0.087171,-0.000070,  40.861
   131.8,0.010168,0.005284,0.088436,-0.000070,  40.852
   132.0,0.010285,0.005355,0.089720,-0.000070,  40.832
   132.2,0.010414,0.005432,0.091016,-0.000083,  40.817
   132.4,0.010533,0.005497,0.092099,-0.000096,  40.810
   132.6,0.010655,0.005555,0.093068,-0.000096,  40.793
   132.8,0.010771,0.005611,0.093938,-0.000083,  40.787
   133.0,0.010897,0.005666,0.095170,-0.000096,  40.776
   133.2,0.011003,0.005728,0.096529,-0.000110,  40.763
   133.4,0.011106,0.005790,0.098004,-0.000096,  40.736
   133.6,0.011210,0.005856,0.099288,-0.000110,  40.722
   133.8,0.011313,0.005917,0.100550,-0.000123,  40.710
   134.0,0.011430,0.005972,0.101770,-0.000123,  40.696
   134.2,0.011547,0.006033,0.103020,-0.000136,  40.685
   134.4,0.011658,0.006089,0.104273,-0.000162,  40.674
   134.6,0.011765,0.006147,0.105532,-0.000175,  40.636
   134.8,0.011876,0.006202,0.106688,-0.000175,  40.629
   135.0,0.011966,0.006257,0.107773,-0.000202,  40.609
   135.2,0.012050,0.006323,0.108834,-0.000202,  40.593
   135.4,0.012109,0.006382,0.109827,-0.000215,  40.564
   135.6,0.012169,0.006440,0.110725,-0.000215,  40.543
   135.8,0.012259,0.006513,0.111575,-0.000215,  40.533
   136.0,0.012354,0.006581,0.112644,-0.000228,  40.514
   136.2,0.012459,0.006632,0.113814,-0.000255,  40.498
   136.4,0.012551,0.006687,0.115047,-0.000255,  40.466
   136.6,0.012648,0.006732,0.115487,-0.000290,  40.439
   136.8,0.012741,0.006783,0.115578,-0.000303,  40.423
   137.0,0.012831,0.006839,0.115322,-0.000303,  40.407
   137.2,0.012917,0.006893,0.116390,-0.000303,  40.378
   137.4,0.012999,0.006941,0.117928,-0.000281,  40.356
   137.6,0.013083,0.007000,0.119965,-0.000294,  40.326
   137.8,0.013160,0.007056,0.121201,-0.000330,  40.303
   138.0,0.013235,0.007105,0.122290,-0.000356,  40.283
   138.2,0.013306,0.007148,0.123197,-0.000369,  40.259
   138.4,0.013371,0.007194,0.124277,-0.000405,  40.237
   138.6,0.013441,0.007241,0.125353,-0.000347,  40.193
   138.8,0.013512,0.007295,0.126448,-0.000347,  40.179
   139.0,0.013590,0.007349,0.127317,-0.000360,  40.159
   139.2,0.013673,0.007394,0.128093,-0.000360,  40.125
   139.4,0.013745,0.007436,0.128743,-0.000373,  40.103
   139.6,0.013802,0.007479,0.129415,-0.000373,  40.073
   139.8,0.013863,0.007522,0.130071,-0.000409,  40.045
   140.0,0.013923,0.007562,0.130649,-0.000422,  40.018
   140.2,0.013973,0.007599,0.131201,-0.000422,  39.990
   140.4,0.014037,0.007640,0.131900,-0.000457,  39.953
   140.6,0.014103,0.007678,0.132601,-0.000435,  39.919
   140.8,0.014172,0.007722,0.133334,-0.000435,  39.900
   141.0,0.014257,0.007755,0.133977,-0.000471,  39.862
   141.2,0.014315,0.007791,0.134580,-0.000448,  39.835
   141.4,0.014354,0.007824,0.135165,-0.000461,  39.800
   141.6,0.014392,0.007863,0.135760,-0.000497,  39.758
   141.8,0.014436,0.007900,0.136353,-0.000461,  39.738
   142.0,0.014480,0.007944,0.136930,-0.000475,  39.694
   142.2,0.014527,0.007987,0.137504,-0.000510,  39.669
   142.4,0.014565,0.008013,0.138045,-0.000475,  39.620
   142.6,0.014594,0.008044,0.138586,-0.000461,  39.585
   142.8,0.014628,0.008067,0.139182,-0.000510,  39.560
   143.0,0.014670,0.008085,0.139765,-0.000501,  39.514
   143.2,0.014712,0.008103,0.140376,-0.000488,  39.485
   143.4,0.014751,0.008121,0.140825,-0.000537,  39.438
   143.6,0.014783,0.008140,0.141186,-0.000514,  39.399
   143.8,0.014825,0.008163,0.141460,-0.000514,  39.369
   144.0,0.014851,0.008186,0.141709,-0.000527,  39.324
   144.2,0.014875,0.008201,0.141887,-0.000518,  39.286
   144.4,0.014890,0.008227,0.141980,-0.000518,  39.245
   144.6,0.014915,0.008243,0.142437,-0.000554,  39.190
   144.8,0.014921,0.008268,0.143045,-0.000567,  39.162
   145.0,0.014938,0.008301,0.143780,-0.000580,  39.118
   145.2,0.014962,0.008339,0.144188,-0.000580,  39.079
   145.4,0.014989,0.008364,0.144496,-0.000544,  39.026
   145.6,0.015007,0.008384,0.144716,-0.000558,  38.976
   145.8,0.015035,0.008397,0.145001,-0.000571,  38.936
   146.0,0.015053,0.008417,0.145273,-0.000571,  38.880
   146.2,0.015067,0.008440,0.145538,-0.000558,  38.841
   146.4,0.015089,0.008461,0.145776,-0.000571,  38.789
   146.6,0.015101,0.008474,0.146003,-0.000584,  38.733
   146.8,0.015109,0.008496,0.146210,-0.000584,  38.689
   147.0,0.015125,0.008516,0.146489,-0.000584,  38.638
   147.2,0.015131,0.008537,0.146754,-0.000610,  38.594
   147.4,0.015133,0.008555,0.147023,-0.000610,  38.536
   147.6,0.015140,0.008571,0.147255,-0.000646,  38.464
   147.8,0.015140,0.008597,0.147472,-0.000624,  38.419
   148.0,0.015143,0.008619,0.147649,-0.000637,  38.374
   148.2,0.015146,0.008637,0.147780,-0.000637,  38.316
   148.4,0.015153,0.008651,0.147867,-0.000637,  38.266
   148.6,0.015150,0.008660,0.147884,-0.000650,  38.193
   148.8,0.015137,0.008662,0.147856,-0.000663,  38.151
   149.0,0.015138,0.008673,0.147929,-0.000663,  38.089
   149.2,0.015125,0.008693,0.148008,-0.000663,  38.027
   149.4,0.015110,0.008709,0.148088,-0.000676,  37.971
   149.6,0.015098,0.008720,0.147960,-0.000676,  37.896
   149.8,0.015094,0.008729,0.147714,-0.000676,  37.851
   150.0,0.015104,0.008741,0.147386,-0.000663,  37.782
   150.2,0.015113,0.008745,0.147435,-0.000676,  37.727
   150.4,0.015094,0.008745,0.147611,-0.000703,  37.663
   150.6,0.015080,0.008744,0.147939,-0.000689,  37.586
   150.8,0.015050,0.008751,0.147908,-0.000703,  37.528
   151.0,0.015026,0.008753,0.147801,-0.000716,  37.466
   151.2,0.014999,0.008767,0.147583,-0.000703,  37.396
   151.4,0.014981,0.008777,0.147434,-0.000738,  37.330
   151.6,0.014957,0.008779,0.147244,-0.000725,  37.248
   151.8,0.014936,0.008788,0.147034,-0.000712,  37.195
   152.0,0.014919,0.008787,0.146861,-0.000774,  37.132
   152.2,0.014892,0.008787,0.146661,-0.000751,  37.065
   152.4,0.014852,0.008787,0.146471,-0.000751,  36.991
   152.6,0.014810,0.008784,0.146295,-0.000787,  36.908
   152.8,0.014783,0.008779,0.146133,-0.000764,  36.856
   153.0,0.014762,0.008783,0.145958,-0.000764,  36.781
   153.2,0.014741,0.008784,0.145637,-0.000800,  36.712
   153.4,0.014733,0.008774,0.145259,-0.000778,  36.645
   153.6,0.014697,0.008772,0.144809,-0.000778,  36.556
   153.8,0.014662,0.008760,0.144501,-0.000826,  36.501
   154.0,0.014617,0.008748,0.144236,-0.000804,  36.427
   154.2,0.014578,0.008754,0.144010,-0.000817,  36.354
   154.4,0.014529,0.008750,0.143462,-0.000853,  36.279
   154.6,0.014490,0.008738,0.142782,-0.000817,  36.187
   154.8,0.014454,0.008733,0.141970,-0.000830,  36.129
   155.0,0.014415,0.008724,0.141561,-0.000879,  36.051
   155.2,0.014376,0.008708,0.141268,-0.000843,  35.975
   155.4,0.014331,0.008694,0.141134,-0.000830,  35.894
   155.6,0.014280,0.008679,0.140858,-0.000879,  35.804
   155.8,0.014223,0.008669,0.140555,-0.000857,  35.747
   156.0,0.014178,0.008669,0.140252,-0.000857,  35.668
   156.2,0.014137,0.008672,0.139838,-0.000892,  35.594
   156.4,0.014095,0.008653,0.139352,-0.000857,  35.508
   156.6,0.014050,0.008633,0.138814,-0.000857,  35.420
   156.8,0.014002,0.008607,0.138435,-0.000857,  35.360
   157.0,0.013948,0.008587,0.138082,-0.000857,  35.282
   157.2,0.013900,0.008580,0.137798,-0.000870,  35.206
   157.4,0.013852,0.008578,0.137524,-0.000857,  35.133
   157.6,0.013801,0.008563,0.137071,-0.000905,  35.028
   157.8,0.013750,0.008547,0.136558,-0.000870,  34.972
   158.0,0.013699,0.008531,0.136013,-0.000857,  34.889
   158.2,0.013655,0.008512,0.135538,-0.000905,  34.814
   158.4,0.013604,0.008496,0.135043,-0.000870,  34.725
   158.6,0.013537,0.008478,0.134552,-0.000857,  34.619
   158.8,0.013477,0.008465,0.133982,-0.000905,  34.551
   159.0,0.013423,0.008453,0.133357,-0.000870,  34.468
   159.2,0.013368,0.008445,0.132690,-0.000857,  34.376
   159.4,0.013321,0.008431,0.132089,-0.000905,  34.297
   159.6,0.013261,0.008418,0.131456,-0.000870,  34.189
   159.8,0.013207,0.008397,0.130843,-0.000857,  34.117
   160.0,0.013150,0.008386,0.130254,-0.000905,  34.018
   160.2,0.013099,0.008368,0.129673,-0.000870,  33.934
   160.4,0.013048,0.008347,0.129110,-0.000857,  33.836
   160.6,0.013004,0.008326,0.128198,-0.000892,  33.730
   160.8,0.012954,0.008307,0.127150,-0.000843,  33.659
   161.0,0.012893,0.008296,0.125941,-0.000830,  33.569
   161.2,0.012846,0.008285,0.125301,-0.000843,  33.471
   161.4,0.012801,0.008261,0.124830,-0.000821,  33.382
   161.6,0.012769,0.008241,0.124555,-0.000808,  33.263
   161.8,0.012727,0.008224,0.124094,-0.000808,  33.190
   162.0,0.012701,0.008200,0.123634,-0.000821,  33.101
   162.2,0.012652,0.008185,0.123165,-0.000808,  33.000
   162.4,0.012610,0.008171,0.122638,-0.000843,  32.903
   162.6,0.012558,0.008151,0.122070,-0.000843,  32.792
   162.8,0.012505,0.008130,0.121476,-0.000830,  32.716
   163.0,0.012448,0.008115,0.120868,-0.000866,  32.616
   163.2,0.012392,0.008094,0.120267,-0.000830,  32.524
   163.4,0.012332,0.008083,0.119625,-0.000817,  32.428
   163.6,0.012272,0.008073,0.118702,-0.000853,  32.313
   163.8,0.012215,0.008056,0.117632,-0.000817,  32.237
   164.0,0.012170,0.008049,0.116392,-0.000817,  32.142
   164.2,0.012126,0.008039,0.115686,-0.000853,  32.051
   164.4,0.012094,0.008017,0.115154,-0.000817,  31.952
   164.6,0.012043,0.007988,0.114796,-0.000817,  31.826
   164.8,0.011980,0.007963,0.114041,-0.000853,  31.745
   165.0,0.011924,0.007959,0.113172,-0.000817,  31.656
   165.2,0.011876,0.007959,0.112196,-0.000817,  31.561
   165.4,0.011825,0.007975,0.111643,-0.000853,  31.461
   165.6,0.011784,0.007950,0.111240,-0.000804,  31.339
   165.8,0.011730,0.007908,0.111000,-0.000804,  31.261
   166.0,0.011670,0.007855,0.110446,-0.000791,  31.166
   166.2,0.011617,0.007814,0.109835,-0.000804,  31.065
   166.4,0.011572,0.007780,0.109149,-0.000804,  30.963
   166.6,0.011527,0.007749,0.108373,-0.000804,  30.846
   166.8,0.011504,0.007710,0.107785,-0.000826,  30.769
   167.0,0.011471,0.007684,0.107228,-0.000791,  30.679
   167.2,0.011428,0.007665,0.106706,-0.000791,  30.586
   167.4,0.011403,0.007630,0.106168,-0.000813,  30.477
   167.6,0.011367,0.007596,0.105624,-0.000791,  30.358
   167.8,0.011331,0.007568,0.105119,-0.000791,  30.275
   168.0,0.011299,0.007551,0.104541,-0.000813,  30.181
   168.2,0.011278,0.007544,0.103929,-0.000778,  30.085
   168.4,0.011255,0.007553,0.103278,-0.000778,  29.977
   168.6,0.011237,0.007539,0.102703,-0.000813,  29.858
   168.8,0.011219,0.007525,0.102151,-0.000778,  29.783
   169.0,0.011198,0.007506,0.101623,-0.000764,  29.687
   169.2,0.011184,0.007490,0.101064,-0.000764,  29.588
   169.4,0.011169,0.007482,0.100497,-0.000716,  29.480
   169.6,0.011157,0.007483,0.099928,-0.000703,  29.362
   169.8,0.011152,0.007478,0.099395,-0.000689,  29.286
   170.0,0.011140,0.007476,0.098871,-0.000676,  29.185
   170.2,0.011119,0.007476,0.098332,-0.000650,  29.090
   170.4,0.011101,0.007471,0.097784,-0.000637,  28.988
   170.6,0.011082,0.007460,0.097221,-0.000637,  28.871
   170.8,0.011066,0.007447,0.096656,-0.000624,  28.791
   171.0,0.011057,0.007427,0.095889,-0.000597,  28.690
   171.2,0.011048,0.007425,0.095007,-0.000610,  28.596
   171.4,0.011045,0.007429,0.094039,-0.000597,  28.505
   171.6,0.011041,0.007443,0.093659,-0.000584,  28.385
   171.8,0.011054,0.007441,0.093476,-0.000571,  28.313
   172.0,0.011044,0.007428,0.093533,-0.000558,  28.213
   172.2,0.011029,0.007416,0.093291,-0.000593,  28.118
   172.4,0.011017,0.007409,0.092979,-0.000593,  28.019
   172.6,0.011014,0.007404,0.092612,-0.000567,  27.906
   172.8,0.011014,0.007404,0.092248,-0.000589,  27.831
   173.0,0.011025,0.007392,0.091877,-0.000540,  27.742
   173.2,0.011033,0.007390,0.091474,-0.000514,  27.648
   173.4,0.011045,0.007386,0.091072,-0.000550,  27.560
   173.6,0.011070,0.007377,0.090654,-0.000514,  27.451
   173.8,0.011070,0.007378,0.090249,-0.000501,  27.378
   174.0,0.011054,0.007372,0.090000,-0.000537,  27.285
   174.2,0.011036,0.007371,0.089813,-0.000488,  27.195
   174.4,0.011036,0.007383,0.089686,-0.000488,  27.108
   174.6,0.011030,0.007394,0.089506,-0.000461,  27.002
   174.8,0.011042,0.007387,0.089356,-0.000461,  26.935
   175.0,0.011042,0.007376,0.089183,-0.000435,  26.850
   175.2,0.011036,0.007360,0.089018,-0.000422,  26.771
   175.4,0.011044,0.007350,0.088853,-0.000431,  26.687
   175.6,0.011047,0.007344,0.088695,-0.000409,  26.593
   175.8,0.011036,0.007339,0.088545,-0.000396,  26.525
   176.0,0.011042,0.007330,0.088312,-0.000418,  26.454
   176.2,0.011045,0.007321,0.088078,-0.000369,  26.370
   176.4,0.011038,0.007309,0.087790,-0.000356,  26.293
   176.6,0.011048,0.007297,0.087579,-0.000392,  26.199
   176.8,0.011048,0.007288,0.087399,-0.000356,  26.137
   177.0,0.011038,0.007279,0.087233,-0.000330,  26.067
   177.2,0.011039,0.007268,0.087060,-0.000365,  25.993
   177.4,0.011039,0.007273,0.086886,-0.000330,  25.925
   177.6,0.011032,0.007270,0.086705,-0.000316,  25.840
   177.8,0.011033,0.007275,0.086501,-0.000339,  25.776
   178.0,0.011033,0.007273,0.086305,-0.000303,  25.712
   178.2,0.011032,0.007269,0.086086,-0.000290,  25.650
   178.4,0.011039,0.007258,0.085997,-0.000326,  25.579
   178.6,0.011036,0.007246,0.085969,-0.000277,  25.497
   178.8,0.011024,0.007239,0.086023,-0.000264,  25.441
   179.0,0.011019,0.007225,0.085948,-0.000299,  25.384
   179.2,0.011013,0.007220,0.085843,-0.000264,  25.326
   179.4,0.011010,0.007215,0.085714,-0.000251,  25.266
   179.6,0.011007,0.007217,0.085609,-0.000237,  25.192
   179.8,0.011004,0.007208,0.085511,-0.000202,  25.142
   180.0,0.010995,0.007193,0.085398,-0.000189,  25.092
   180.2,0.010973,0.007182,0.085378,-0.000224,  25.034
   180.4,0.010962,0.007174,0.085402,-0.000224,  24.976
   180.6,0.010947,0.007163,0.085434,-0.000211,  24.912
   180.8,0.010925,0.007147,0.084880,-0.000233,  24.866
   181.0,0.010917,0.007124,0.084061,-0.000198,  24.817
   181.2,0.010896,0.007111,0.082935,-0.000185,  24.766
   181.4,0.010878,0.007091,0.082838,-0.000207,  24.715
   181.6,0.010857,0.007070,0.083126,-0.000198,  24.659
   181.8,0.010842,0.007055,0.083791,-0.000198,  24.618
   182.0,0.010821,0.007036,0.083890,-0.000220,  24.575
   182.2,0.010804,0.007013,0.083899,-0.000185,  24.528
   182.4,0.010790,0.006994,0.083832,-0.000185,  24.487
   182.6,0.010768,0.006969,0.083825,-0.000220,  24.433
   182.8,0.010760,0.006940,0.083766,-0.000171,  24.402
   183.0,0.010736,0.006920,0.083684,-0.000185,  24.360
   183.2,0.010702,0.006900,0.083670,-0.000185,  24.318
   183.4,0.010680,0.006875,0.083664,-0.000185,  24.272
   183.6,0.010650,0.006852,0.083680,-0.000185,  24.228
   183.8,0.010617,0.006832,0.083682,-0.000171,  24.199
   184.0,0.010588,0.006804,0.083714,-0.000171,  24.159
   184.2,0.010559,0.006780,0.083724,-0.000123,  24.121
   184.4,0.010529,0.006750,0.083756,-0.000123,  24.085
   184.6,0.010496,0.006727,0.083689,-0.000123,  24.042
   184.8,0.010467,0.006705,0.083577,-0.000136,  24.011
   185.0,0.010427,0.006682,0.083427,-0.000136,  23.976
   185.2,0.010394,0.006657,0.083322,-0.000136,  23.942
   185.4,0.010361,0.006631,0.083188,-0.000149,  23.910
   185.6,0.010337,0.006605,0.083047,-0.000149,  23.872
   185.8,0.010310,0.006585,0.082913,-0.000149,  23.847
   186.0,0.010280,0.006556,0.082771,-0.000149,  23.819
   186.2,0.010248,0.006540,0.082614,-0.000149,  23.787
   186.4,0.010219,0.006518,0.082488,-0.000149,  23.751
   186.6,0.010186,0.006493,0.082369,-0.000149,  23.714
   186.8,0.010144,0.006465,0.082258,-0.000136,  23.689
   187.0,0.010118,0.006442,0.082080,-0.000136,  23.664
   187.2,0.010081,0.006410,0.081900,-0.000123,  23.634
   187.4,0.010049,0.006376,0.081647,-0.000123,  23.602
   187.6,0.010019,0.006345,0.081477,-0.000123,  23.567
   187.8,0.009992,0.006306,0.081328,-0.000136,  23.548
   188.0,0.009969,0.006278,0.081188,-0.000136,  23.515
   188.2,0.009949,0.006250,0.081033,-0.000171,  23.486
   188.4,0.009922,0.006220,0.080891,-0.000185,  23.463
   188.6,0.009893,0.006205,0.080735,-0.000185,  23.424
   188.8,0.009860,0.006189,0.080543,-0.000220,  23.407
   189.0,0.009834,0.006155,0.080320,-0.000185,  23.381
   189.2,0.009799,0.006124,0.080083,-0.000185,  23.353
   189.4,0.009760,0.006080,0.079905,-0.000185,  23.327
   189.6,0.009722,0.006046,0.079713,-0.000162,  23.294
   189.8,0.009687,0.006021,0.079542,-0.000162,  23.275
   190.0,0.009647,0.005989,0.079350,-0.000171,  23.245
   190.2,0.009618,0.005958,0.079114,-0.000171,  23.222
   190.4,0.009585,0.005927,0.078878,-0.000171,  23.197
   190.6,0.009549,0.005897,0.078702,-0.000194,  23.164
   190.8,0.009521,0.005862,0.078541,-0.000171,  23.142
   191.0,0.009488,0.005838,0.078402,-0.000171,  23.115
   191.2,0.009442,0.005820,0.078143,-0.000194,  23.092
   191.4,0.009403,0.005788,0.077833,-0.000171,  23.071
   191.6,0.009371,0.005761,0.077485,-0.000171,  23.039
   191.8,0.009331,0.005734,0.077235,-0.000158,  23.014
   192.0,0.009305,0.005702,0.077021,-0.000171,  22.995
   192.2,0.009270,0.005675,0.076808,-0.000171,  22.971
   192.4,0.009227,0.005648,0.076624,-0.000171,  22.941
   192.6,0.009196,0.005614,0.076381,-0.000207,  22.907
   192.8,0.009160,0.005588,0.076124,-0.000185,  22.889
   193.0,0.009125,0.005566,0.075853,-0.000171,  22.862
   193.2,0.009093,0.005534,0.075627,-0.000194,  22.839
   193.4,0.009061,0.005512,0.075453,-0.000145,  22.814
   193.6,0.009025,0.005495,0.075272,-0.000132,  22.782
   193.8,0.008992,0.005467,0.074529,-0.000181,  22.767
   194.0,0.008960,0.005445,0.073507,-0.000158,  22.743
   194.2,0.008924,0.005420,0.072225,-0.000145,  22.716
   194.4,0.008889,0.005399,0.071780,-0.000158,  22.691
   194.6,0.008859,0.005379,0.071600,-0.000123,  22.662
   194.8,0.008830,0.005361,0.071712,-0.000110,  22.646
   195.0,0.008797,0.005351,0.071648,-0.000158,  22.622
   195.2,0.008761,0.005326,0.071614,-0.000158,  22.592
   195.4,0.008719,0.005297,0.071630,-0.000145,  22.565
   195.6,0.008678,0.005276,0.071611,-0.000194,  22.533
   195.8,0.008639,0.005246,0.071578,-0.000158,  22.517
   196.0,0.008601,0.005216,0.071559,-0.000145,  22.488
   196.2,0.008569,0.005191,0.071415,-0.000181,  22.468
   196.4,0.008537,0.005164,0.071191,-0.000132,  22.445
   196.6,0.008501,0.005136,0.070887,-0.000119,  22.412
   196.8,0.008466,0.005109,0.070620,-0.000167,  22.392
   197.0,0.008443,0.005077,0.070308,-0.000145,  22.368
   197.2,0.008409,0.005058,0.069975,-0.000132,  22.339
   197.4,0.008390,0.005035,0.069738,-0.000167,  22.309
   197.6,0.008363,0.005012,0.069536,-0.000145,  22.276
   197.8,0.008327,0.005003,0.069371,-0.000132,  22.258
   198.0,0.008301,0.004989,0.069083,-0.000167,  22.236
   198.2,0.008266,0.004957,0.068751,-0.000132,  22.212
   198.4,0.008230,0.004933,0.068383,-0.000119,  22.182
   198.6,0.008185,0.004896,0.068045,-0.000132,  22.154
   198.8,0.008150,0.004862,0.067714,-0.000110,  22.131
   199.0,0.008128,0.004835,0.067390,-0.000096,  22.106
   199.2,0.008095,0.004805,0.067052,-0.000083,  22.078
   199.4,0.008070,0.004776,0.066722,-0.000083,  22.054
   199.6,0.008037,0.004752,0.066377,-0.000070,  22.025
   199.8,0.008005,0.004730,0.066098,-0.000070,  22.005
   200.0,0.007959,0.004706,0.065826,-0.000083,  21.984
   200.2,0.007917,0.004678,0.065562,-0.000083,  21.950
   200.4,0.007877,0.004654,0.065320,-0.000119,  21.927
   200.6,0.007839,0.004632,0.065070,-0.000083,  21.897
   200.8,0.007804,0.004609,0.064835,-0.000083,  21.879
   201.0,0.007764,0.004588,0.064471,-0.000070,  21.849
   201.2,0.007729,0.004558,0.064027,-0.000119,  21.821
   201.4,0.007693,0.004530,0.063534,-0.000119,  21.795
   201.6,0.007654,0.004508,0.063228,-0.000106,  21.767
   201.8,0.007626,0.004488,0.062986,-0.000141,  21.747
   202.0,0.007593,0.004468,0.062816,-0.000119,  21.713
   202.2,0.007564,0.004453,0.062710,-0.000106,  21.692
   202.4,0.007545,0.004427,0.062454,-0.000106,  21.662
   202.6,0.007512,0.004402,0.062163,-0.000070,  21.630
   202.8,0.007467,0.004382,0.061837,-0.000070,  21.614
   203.0,0.007433,0.004357,0.061540,-0.000070,  21.586
   203.2,0.007400,0.004336,0.061263,-0.000070,  21.563
   203.4,0.007355,0.004317,0.060959,-0.000070,  21.534
   203.6,0.007324,0.004296,0.060384,-0.000070,  21.506
   203.8,0.007291,0.004286,0.059662,-0.000070,  21.485
   204.0,0.007246,0.004275,0.058800,-0.000057,  21.456
   204.2,0.007217,0.004266,0.058469,-0.000044,  21.432
   204.4,0.007185,0.004240,0.058343,-0.000044,  21.407
   204.6,0.007143,0.004219,0.058400,-0.000030,  21.377
   204.8,0.007117,0.004196,0.058182,-0.000030,  21.356
   205.0,0.007085,0.004173,0.057936,-0.000057,  21.326
   205.2,0.007033,0.004150,0.057655,-0.000057,  21.301
   205.4,0.006997,0.004129,0.057234,-0.000057,  21.278
   205.6,0.006965,0.004104,0.056749,-0.000057,  21.245
   205.8,0.006936,0.004083,0.056161,-0.000057,  21.228
   206.0,0.006918,0.004062,0.055888,-0.000079,  21.200
   206.2,0.006885,0.004038,0.055728,-0.000079,  21.181
   206.4,0.006859,0.004015,0.055651,-0.000079,  21.153
   206.6,0.006822,0.003992,0.055456,-0.000066,  21.117
   206.8,0.006789,0.003967,0.055225,-0.000044,  21.097
   207.0,0.006754,0.003950,0.054988,-0.000044,  21.073
   207.2,0.006715,0.003930,0.054702,-0.000030,  21.046
   207.4,0.006677,0.003905,0.054381,-0.000044,  21.026
   207.6,0.006642,0.003885,0.054046,-0.000044,  20.992
   207.8,0.006609,0.003858,0.053579,-0.000030,  20.978
   208.0,0.006578,0.003832,0.053023,-0.000030,  20.950
   208.2,0.006540,0.003815,0.052391,-0.000030,  20.925
   208.4,0.006495,0.003798,0.052079,-0.000030,  20.899
   208.6,0.006460,0.003773,0.051857,-0.000030,  20.866
   208.8,0.006422,0.003754,0.051732,-0.000030,  20.848
   209.0,0.006377,0.003735,0.051241,-0.000030,  20.825
   209.2,0.006348,0.003707,0.050591,-0.000030,  20.802
   209.4,0.006313,0.003682,0.049805,-0.000017,  20.775
   209.6,0.006265,0.003652,0.049515,-0.000053,  20.744
   209.8,0.006228,0.003627,0.049398,-0.000017,  20.729
   210.0,0.006189,0.003612,0.049453,-0.000017,  20.705
   210.2,0.006147,0.003597,0.049693,-0.000017,  20.680
   210.4,0.006106,0.003569,0.049528,-0.000017,  20.658
   210.6,0.006071,0.003547,0.049314,-0.000030,  20.628
   210.8,0.006039,0.003524,0.049038,-0.000030,  20.605
   211.0,0.006011,0.003495,0.048942,-0.000017,  20.585
   211.2,0.005979,0.003478,0.048907,-0.000017,  20.563
   211.4,0.005940,0.003456,0.048913,-0.000017,  20.534
   211.6,0.005905,0.003434,0.048665,-0.000004,  20.502
   211.8,0.005880,0.003423,0.048280,-0.000017,  20.482
   212.0,0.005839,0.003403,0.047820,-0.000017,  20.457
   212.2,0.005800,0.003394,0.047470,-0.000004,  20.432
   212.4,0.005765,0.003374,0.047106,-0.000017,  20.406
   212.6,0.005724,0.003348,0.046757,-0.000017,  20.377
   212.8,0.005676,0.003323,0.046442,-0.000004,  20.350
   213.0,0.005634,0.003301,0.046148,-0.000017,  20.324
   213.2,0.005592,0.003282,0.045860,-0.000004,  20.301
   213.4,0.005563,0.003261,0.045587,-0.000004,  20.275
   213.6,0.005524,0.003236,0.045327,-0.000004,  20.244
   213.8,0.005488,0.003213,0.045081,-0.000004,  20.220
   214.0,0.005464,0.003185,0.044794,-0.000040,  20.193
   214.2,0.005438,0.003162,0.044474,-0.000053,  20.163
   214.4,0.005406,0.003142,0.044161,-0.000053,  20.137
   214.6,0.005367,0.003119,0.043821,-0.000075,  20.105
   214.8,0.005333,0.003099,0.043474,-0.000053,  20.082
   215.0,0.005304,0.003081,0.043108,-0.000053,  20.055
   215.2,0.005271,0.003063,0.042849,-0.000088,  20.027
   215.4,0.005239,0.003043,0.042625,-0.000066,  20.002
   215.6,0.005204,0.003020,0.042448,-0.000066,  19.969
   215.8,0.005169,0.002999,0.042116,-0.000102,  19.948
   216.0,0.005131,0.002971,0.041744,-0.000066,  19.917
   216.2,0.005092,0.002950,0.041312,-0.000053,  19.894
   216.4,0.005051,0.002933,0.041041,-0.000088,  19.862
   216.6,0.005020,0.002913,0.040838,-0.000040,  19.829
   216.8,0.004988,0.002900,0.040668,-0.000026,  19.805
   217.0,0.004936,0.002890,0.040343,-0.000062,  19.776
   217.2,0.004901,0.002867,0.039959,-0.000026,  19.747
   217.4,0.004863,0.002849,0.039502,-0.000040,  19.720
   217.6,0.004812,0.002828,0.039219,-0.000040,  19.690
   217.8,0.004775,0.002806,0.038989,-0.000040,  19.670
   218.0,0.004739,0.002784,0.038841,-0.000040,  19.643
   218.2,0.004704,0.002770,0.038740,-0.000026,  19.614
   218.4,0.004682,0.002745,0.038544,-0.000062,  19.586
   218.6,0.004647,0.002719,0.038322,-0.000026,  19.552
   218.8,0.004609,0.002699,0.038113,-0.000013,  19.527
   219.0,0.004567,0.002676,0.037858,-0.000049,  19.502
   219.2,0.004529,0.002656,0.037556,-0.000026,  19.468
   219.4,0.004488,0.002636,0.037208,-0.000013,  19.441
   219.6,0.004451,0.002611,0.036800,-0.000049,  19.405
   219.8,0.004410,0.002586,0.036327,-0.000013,  19.387
   220.0,0.004365,0.002564,0.035794,0.000000,  19.359
   220.2,0.004324,0.002541,0.035460,-0.000062,  19.334
   220.4,0.004286,0.002521,0.035186,-0.000040,  19.303
   220.6,0.004248,0.002502,0.034979,-0.000026,  19.266
   220.8,0.004211,0.002490,0.034738,-0.000062,  19.240
   221.0,0.004176,0.002474,0.034498,-0.000026,  19.214
   221.2,0.004131,0.002463,0.034278,-0.000013,  19.193
   221.4,0.004100,0.002447,0.034064,-0.000013,  19.161
   221.6,0.004065,0.002423,0.033863,0.000009,  19.124
   221.8,0.004016,0.002397,0.033669,0.000022,  19.107
   222.0,0.003975,0.002364,0.033402,0.000022,  19.079
   222.2,0.003939,0.002334,0.033117,0.000009,  19.052
   222.4,0.003919,0.002312,0.032798,0.000022,  19.024
   222.6,0.003886,0.002287,0.032493,0.000022,  18.987
   222.8,0.003879,0.002264,0.032202,0.000009,  18.958
   223.0,0.003847,0.002244,0.031904,0.000022,  18.938
   223.2,0.003812,0.002219,0.031567,0.000009,  18.906
   223.4,0.003774,0.002196,0.031204,-0.000004,  18.877
   223.6,0.003742,0.002173,0.030790,0.000009,  18.838
   223.8,0.003710,0.002148,0.029958,-0.000004,  18.821
   224.0,0.003680,0.002133,0.028900,-0.000004,  18.792
   224.2,0.003648,0.002113,0.027592,0.000009,  18.760
   224.4,0.003616,0.002100,0.027342,-0.000004,  18.734
   224.6,0.003584,0.002077,0.027494,-0.000004,  18.700
   224.8,0.003555,0.002061,0.028049,0.000009,  18.680
   225.0,0.003522,0.002046,0.028052,-0.000004,  18.650
   225.2,0.003490,0.002024,0.027991,-0.000004,  18.619
   225.4,0.003464,0.002005,0.027839,-0.000004,  18.587
   225.6,0.003435,0.001993,0.027648,-0.000026,  18.559
   225.8,0.003408,0.001978,0.027392,0.000022,  18.537
   226.0,0.003382,0.001959,0.027066,0.000036,  18.501
   226.2,0.003353,0.001955,0.026926,0.000049,  18.476
   226.4,0.003318,0.001939,0.026846,0.000000,  18.451
   226.6,0.003289,0.001921,0.026803,0.000000,  18.412
   226.8,0.003259,0.001900,0.026639,0.000013,  18.390
   227.0,0.003224,0.001884,0.026430,-0.000022,  18.359
   227.2,0.003198,0.001876,0.026183,0.000000,  18.332
   227.4,0.003175,0.001862,0.025878,0.000013,  18.293
   227.6,0.003154,0.001844,0.025276,-0.000022,  18.265
   227.8,0.003128,0.001830,0.024520,0.000000,  18.242
   228.0,0.003096,0.001812,0.023625,0.000013,  18.209
   228.2,0.003070,0.001797,0.023308,-0.000036,  18.179
   228.4,0.003044,0.001780,0.023197,-0.000013,  18.150
   228.6,0.003001,0.001766,0.023290,0.000000,  18.115
   228.8,0.002969,0.001756,0.023178,-0.000036,  18.089
   229.0,0.002939,0.001742,0.023059,0.000000,  18.059
   229.2,0.002921,0.001737,0.022921,0.000013,  18.035
   229.4,0.002904,0.001730,0.022788,-0.000022,  18.002
   229.6,0.002874,0.001714,0.022670,0.000000,  17.969
   229.8,0.002842,0.001694,0.022538,0.000013,  17.946
   230.0,0.002814,0.001675,0.022216,0.000000,  17.908
   230.2,0.002781,0.001661,0.021764,0.000022,  17.885
   230.4,0.002755,0.001647,0.021219,0.000036,  17.854
   230.6,0.002729,0.001637,0.020834,0.000036,  17.815
   230.8,0.002699,0.001619,0.020455,0.000049,  17.796
   231.0,0.002667,0.001602,0.020076,0.000049,  17.765
   231.2,0.002639,0.001575,0.019920,0.000049,  17.741
   231.4,0.002616,0.001552,0.019891,0.000036,  17.712
   231.6,0.002595,0.001534,0.019938,0.000049,  17.676
   231.8,0.002581,0.001511,0.019768,0.000013,  17.655
   232.0,0.002566,0.001494,0.019568,0.000000,  17.625
   232.2,0.002546,0.001483,0.019285,0.000013,  17.597
   232.4,0.002513,0.001470,0.019073,0.000000,  17.567
   232.6,0.002493,0.001447,0.018828,0.000022,  17.530
   232.8,0.002467,0.001431,0.018596,0.000036,  17.508
   233.0,0.002441,0.001405,0.018403,0.000036,  17.480
   233.2,0.002418,0.001388,0.018202,0.000036,  17.453
   233.4,0.002392,0.001379,0.018022,0.000049,  17.421
   233.6,0.002369,0.001374,0.017784,0.000049,  17.390
   233.8,0.002355,0.001361,0.017508,0.000036,  17.367
   234.0,0.002338,0.001348,0.017227,0.000049,  17.339
   234.2,0.002313,0.001339,0.016953,0.000049,  17.315
   234.4,0.002296,0.001328,0.016658,0.000036,  17.283
   234.6,0.002276,0.001313,0.016353,0.000036,  17.244
   234.8,0.002252,0.001300,0.016085,0.000013,  17.223
   235.0,0.002233,0.001291,0.015811,0.000049,  17.198
   235.2,0.002215,0.001287,0.015530,0.000036,  17.172
   235.4,0.002191,0.001275,0.015294,0.000049,  17.142
   235.6,0.002180,0.001262,0.015096,0.000036,  17.111
   235.8,0.002167,0.001248,0.014917,0.000036,  17.093
   236.0,0.002151,0.001240,0.014745,0.000049,  17.065
   236.2,0.002142,0.001232,0.014503,0.000049,  17.033
   236.4,0.002125,0.001218,0.014249,0.000036,  17.006
   236.6,0.002100,0.001213,0.013976,0.000049,  16.973
   236.8,0.002072,0.001204,0.013698,0.000049,  16.957
   237.0,0.002050,0.001189,0.013394,0.000049,  16.934
   237.2,0.002032,0.001182,0.013040,0.000049,  16.909
   237.4,0.002010,0.001175,0.012836,0.000049,  16.878
   237.6,0.001992,0.001164,0.012682,0.000036,  16.846
   237.8,0.001970,0.001161,0.012591,0.000049,  16.830
   238.0,0.001957,0.001151,0.012207,0.000049,  16.804
   238.2,0.001948,0.001149,0.011711,0.000049,  16.776
   238.4,0.001932,0.001137,0.011093,0.000049,  16.758
   238.6,0.001931,0.001132,0.010822,0.000049,  16.724
   238.8,0.001919,0.001116,0.010645,0.000049,  16.705
   239.0,0.001897,0.001112,0.010585,0.000049,  16.682
   239.2,0.001884,0.001100,0.010463,0.000049,  16.659
   239.4,0.001869,0.001085,0.010341,0.000049,  16.634
   239.6,0.001852,0.001082,0.010219,0.000062,  16.604
   239.8,0.001838,0.001070,0.009862,0.000075,  16.585
   240.0,0.001827,0.001061,0.009407,0.000075,  16.559
   240.2,0.001815,0.001059,0.008798,0.000088,  16.538
   240.4,0.001801,0.001059,0.008540,0.000102,  16.516
   240.6,0.001789,0.001052,0.008420,0.000075,  16.489
   240.8,0.001780,0.001045,0.008398,0.000075,  16.470
   241.0,0.001774,0.001046,0.008117,0.000088,  16.445
   241.2,0.001766,0.001042,0.007781,0.000088,  16.423
   241.4,0.001760,0.001033,0.007360,0.000088,  16.398
   241.6,0.001761,0.001025,0.007196,0.000088,  16.368
   241.8,0.001752,0.001016,0.007131,0.000088,  16.353
   242.0,0.001743,0.001011,0.007139,0.000102,  16.337
   242.2,0.001728,0.001002,0.007054,0.000066,  16.311
   242.4,0.001723,0.000999,0.006982,0.000079,  16.286
   242.6,0.001714,0.000997,0.006904,0.000079,  16.261
   242.8,0.001699,0.001000,0.006735,0.000079,  16.244
   243.0,0.001694,0.000998,0.006523,0.000102,  16.221
   243.2,0.001685,0.000991,0.006276,0.000102,  16.200
   243.4,0.001666,0.000977,0.006094,0.000115,  16.177
   243.6,0.001660,0.000970,0.005937,0.000102,  16.148
   243.8,0.001651,0.000959,0.005781,0.000102,  16.133
   244.0,0.001642,0.000958,0.005624,0.000115,  16.108
   244.2,0.001640,0.000956,0.005468,0.000102,  16.088
   244.4,0.001635,0.000958,0.005338,0.000137,  16.069
   244.6,0.001629,0.000963,0.005201,0.000150,  16.046
   244.8,0.001630,0.000956,0.005069,0.000150,  16.024
   245.0,0.001624,0.000949,0.004952,0.000115,  16.006
   245.2,0.001611,0.000942,0.004827,0.000128,  15.989
   245.4,0.001610,0.000937,0.004635,0.000128,  15.964
   245.6,0.001604,0.000932,0.004418,0.000128,  15.944
   245.8,0.001588,0.000936,0.004164,0.000141,  15.927
   246.0,0.001586,0.000930,0.004039,0.000141,  15.904
   246.2,0.001580,0.000924,0.003943,0.000128,  15.882
   246.4,0.001568,0.000927,0.003884,0.000141,  15.864
   246.6,0.001566,0.000927,0.003728,0.000141,  15.841
   246.8,0.001563,0.000926,0.003549,0.000128,  15.828
   247.0,0.001550,0.000925,0.003334,0.000141,  15.802
   247.2,0.001548,0.000920,0.003191,0.000141,  15.786
   247.4,0.001543,0.000917,0.003084,0.000128,  15.768
   247.6,0.001527,0.000920,0.002971,0.000141,  15.743
   247.8,0.001521,0.000923,0.002798,0.000141,  15.728
   248.0,0.001518,0.000923,0.002607,0.000163,  15.711
   248.2,0.001505,0.000918,0.002380,0.000177,  15.693
   248.4,0.001500,0.000912,0.002244,0.000106,  15.675
   248.6,0.001494,0.000904,0.002120,0.000106,  15.652
   248.8,0.001484,0.000900,0.002008,0.000132,  15.632
   249.0,0.001479,0.000903,0.001877,0.000096,  15.618
   249.2,0.001476,0.000895,0.001722,0.000145,  15.604
   249.4,0.001469,0.000892,0.001561,0.000145,  15.585
   249.6,0.001473,0.000896,0.001413,0.000110,  15.560
   249.8,0.001471,0.000891,0.001253,0.000132,  15.547
   250.0,0.001468,0.000884,0.001094,0.000119,  15.530
   250.2,0.001465,0.000885,0.000940,0.000083,  15.512
   250.4,0.001459,0.000885,0.000782,0.000132,  15.498
   250.6,0.001459,0.000889,0.000591,0.000132,  15.474
   250.8,0.001449,0.000886,0.000473,0.000096,  15.462
   251.0,0.001456,0.000886,0.000393,0.000132,  15.450
   251.2,0.001453,0.000890,0.000324,0.000132,  15.434
   251.4,0.001447,0.000884,0.000201,0.000096,  15.417
   251.6,0.001448,0.000882,0.000060,0.000132,  15.396
   251.8,0.001443,0.000879,-0.000116,0.000145,  15.384
   252.0,0.001440,0.000881,-0.000299,0.000123,  15.370
   252.2,0.001441,0.000876,-0.000494,0.000158,  15.351
   252.4,0.001441,0.000870,-0.000717,0.000172,  15.333
   252.6,0.001441,0.000871,-0.001091,0.000149,  15.317
   252.8,0.001445,0.000872,-0.001562,0.000158,  15.305
   253.0,0.001445,0.000872,-0.002114,0.000158,  15.290
   253.2,0.001438,0.000871,-0.002154,0.000136,  15.271
   253.4,0.001428,0.000873,-0.001971,0.000194,  15.259
   253.6,0.001428,0.000877,-0.001580,0.000194,  15.243
   253.8,0.001428,0.000892,-0.001588,0.000207,  15.229
   254.0,0.001425,0.000891,-0.001674,0.000207,  15.221
   254.2,0.001422,0.000884,-0.001872,0.000220,  15.204
   254.4,0.001422,0.000888,-0.001923,0.000233,  15.191
   254.6,0.001419,0.000888,-0.001925,0.000233,  15.171
   254.8,0.001419,0.000879,-0.001921,0.000233,  15.164
   255.0,0.001419,0.000878,-0.001875,0.000247,  15.150
   255.2,0.001419,0.000874,-0.002110,0.000211,  15.134
   255.4,0.001422,0.000879,-0.002439,0.000211,  15.126
   255.6,0.001419,0.000881,-0.002857,0.000224,  15.104
   255.8,0.001420,0.000871,-0.002936,0.000189,  15.098
   256.0,0.001420,0.000873,-0.002902,0.000224,  15.084
   256.2,0.001413,0.000873,-0.002731,0.000238,  15.071
   256.4,0.001408,0.000875,-0.002720,0.000189,  15.054
   256.6,0.001405,0.000873,-0.002727,0.000211,  15.042
   256.8,0.001402,0.000878,-0.002771,0.000224,  15.034
   257.0,0.001403,0.000878,-0.002767,0.000202,  15.021
   257.2,0.001400,0.000873,-0.002727,0.000238,  15.010
   257.4,0.001390,0.000877,-0.002706,0.000251,  14.996
   257.6,0.001397,0.000879,-0.002697,0.000215,  14.981
   257.8,0.001400,0.000883,-0.002669,0.000238,  14.973
   258.0,0.001387,0.000885,-0.002658,0.000251,  14.963
   258.2,0.001391,0.000888,-0.002679,0.000251,  14.950
   258.4,0.001388,0.000888,-0.002723,0.000286,  14.938
   258.6,0.001376,0.000881,-0.002777,0.000286,  14.918
   258.8,0.001374,0.000877,-0.002855,0.000286,  14.917
   259.0,0.001368,0.000878,-0.002971,0.000273,  14.905
   259.2,0.001358,0.000873,-0.003083,0.000286,  14.894
   259.4,0.001355,0.000876,-0.003339,0.000251,  14.881
   259.6,0.001359,0.000874,-0.003692,0.000238,  14.868
   259.8,0.001349,0.000875,-0.004121,0.000251,  14.862
   260.0,0.001344,0.000872,-0.004187,0.000215,  14.853
   260.2,0.001341,0.000867,-0.004117,0.000251,  14.842
   260.4,0.001338,0.000870,-0.003910,0.000251,  14.832
   260.6,0.001329,0.000866,-0.003852,0.000202,  14.822
   260.8,0.001320,0.000858,-0.003800,0.000224,  14.813
   261.0,0.001318,0.000858,-0.003760,0.000238,  14.802
   261.2,0.001317,0.000851,-0.003719,0.000189,  14.789
   261.4,0.001309,0.000847,-0.003697,0.000224,  14.781
   261.6,0.001306,0.000844,-0.003686,0.000238,  14.770
   261.8,0.001299,0.000840,-0.003670,0.000189,  14.760
   262.0,0.001288,0.000836,-0.003660,0.000224,  14.752
   262.2,0.001278,0.000839,-0.003661,0.000224,  14.743
   262.4,0.001270,0.000836,-0.003750,0.000202,  14.733
   262.6,0.001272,0.000826,-0.003911,0.000224,  14.718
   262.8,0.001266,0.000821,-0.004136,0.000238,  14.712
   263.0,0.001260,0.000816,-0.004202,0.000251,  14.702
   263.2,0.001258,0.000807,-0.004221,0.000238,  14.694
   263.4,0.001256,0.000802,-0.004181,0.000224,  14.686
   263.6,0.001246,0.000803,-0.004118,0.000238,  14.671
   263.8,0.001240,0.000793,-0.004162,0.000189,  14.667
   264.0,0.001237,0.000795,-0.004203,0.000224,  14.658
   264.2,0.001217,0.000794,-0.004282,0.000238,  14.651
   264.4,0.001212,0.000786,-0.004727,0.000189,  14.641
   264.6,0.001209,0.000786,-0.005379,0.000224,  14.627
   264.8,0.001199,0.000783,-0.006242,0.000238,  14.621
   265.0,0.001200,0.000777,-0.006915,0.000189,  14.614
   265.2,0.001197,0.000771,-0.007610,0.000211,  14.604
   265.4,0.001191,0.000768,-0.008322,0.000224,  14.595
   265.6,0.001192,0.000762,-0.008130,0.000189,  14.584
   265.8,0.001189,0.000767,-0.007489,0.000211,  14.576
   266.0,0.001187,0.000758,-0.006424,0.000224,  14.565
   266.2,0.001181,0.000767,-0.006017,0.000224,  14.559
   266.4,0.001178,0.000762,-0.005740,0.000247,  14.548
   266.6,0.001172,0.000757,-0.005585,0.000260,  14.536
   266.8,0.001169,0.000752,-0.005320,0.000224,  14.531
   267.0,0.001166,0.000748,-0.005078,0.000211,  14.521
   267.2,0.001156,0.000744,-0.004847,0.000224,  14.508
   267.4,0.001151,0.000748,-0.004699,0.000189,  14.503
   267.6,0.001148,0.000743,-0.004605,0.000211,  14.488
   267.8,0.001142,0.000746,-0.004545,0.000224,  14.481
   268.0,0.001147,0.000746,-0.004491,0.000189,  14.474
   268.2,0.001151,0.000739,-0.004485,0.000211,  14.463
   268.4,0.001144,0.000734,-0.004508,0.000211,  14.461
   268.6,0.001141,0.000731,-0.004454,0.000211,  14.450
   268.8,0.001141,0.000729,-0.004390,0.000220,  14.444
   269.0,0.001131,0.000727,-0.004318,0.000233,  14.432
   269.2,0.001135,0.000723,-0.004412,0.000211,  14.423
   269.4,0.001132,0.000716,-0.004576,0.000211,  14.415
   269.6,0.001132,0.000715,-0.004821,0.000224,  14.405
   269.8,0.001120,0.000717,-0.004828,0.000189,  14.399
   270.0,0.001118,0.000717,-0.004722,0.000211,  14.390
   270.2,0.001115,0.000714,-0.004552,0.000224,  14.380
   270.4,0.001105,0.000725,-0.004635,0.000202,  14.372
   270.6,0.001109,0.000723,-0.004788,0.000238,  14.365
   270.8,0.001106,0.000726,-0.005037,0.000251,  14.356
   271.0,0.001096,0.000724,-0.004967,0.000215,  14.346
   271.2,0.001093,0.000720,-0.004778,0.000238,  14.332
   271.4,0.001091,0.000713,-0.004465,0.000238,  14.323
   271.6,0.001078,0.000714,-0.004369,0.000202,  14.317
   271.8,0.001066,0.000711,-0.004344,0.000238,  14.308
   272.0,0.001056,0.000701,-0.004372,0.000224,  14.303
   272.2,0.001051,0.000698,-0.004353,0.000238,  14.294
   272.4,0.001045,0.000696,-0.004341,0.000273,  14.283
   272.6,0.001039,0.000696,-0.004353,0.000286,  14.275
   272.8,0.001040,0.000698,-0.004365,0.000286,  14.268
   273.0,0.001042,0.000688,-0.004325,0.000286,  14.263
   273.2,0.001033,0.000685,-0.004254,0.000286,  14.248
   273.4,0.001024,0.000688,-0.004170,0.000286,  14.239
   273.6,0.001022,0.000681,-0.004106,0.000251,  14.227
   273.8,0.001019,0.000672,-0.004034,0.000238,  14.220
   274.0,0.001009,0.000676,-0.003944,0.000251,  14.213
   274.2,0.001013,0.000672,-0.003949,0.000202,  14.204
   274.4,0.001007,0.000670,-0.003989,0.000224,  14.193
   274.6,0.000991,0.000672,-0.004057,0.000238,  14.183
   274.8,0.000982,0.000672,-0.004050,0.000189,  14.173
   275.0,0.000976,0.000662,-0.004033,0.000224,  14.166
   275.2,0.000960,0.000662,-0.003996,0.000238,  14.158
   275.4,0.000959,0.000654,-0.003960,0.000189,  14.145
   275.6,0.000953,0.000649,-0.003954,0.000224,  14.131
   275.8,0.000947,0.000647,-0.003923,0.000238,  14.128
   276.0,0.000951,0.000638,-0.003899,0.000202,  14.118
   276.2,0.000948,0.000630,-0.003893,0.000238,  14.103
   276.4,0.000935,0.000628,-0.003887,0.000251,  14.091
   276.6,0.000932,0.000626,-0.003827,0.000202,  14.078
   276.8,0.000930,0.000621,-0.003763,0.000224,  14.066
   277.0,0.000920,0.000627,-0.003686,0.000238,  14.056
   277.2,0.000924,0.000631,-0.003679,0.000189,  14.051
   277.4,0.000918,0.000631,-0.003726,0.000224,  14.038
   277.6,0.000912,0.000627,-0.003820,0.000238,  14.027
   277.8,0.000906,0.000616,-0.003702,0.000189,  14.021
   278.0,0.000907,0.000611,-0.003518,0.000211,  14.006
   278.2,0.000905,0.000606,-0.003253,0.000224,  13.998
   278.4,0.000895,0.000596,-0.003253,0.000189,  13.981
   278.6,0.000889,0.000584,-0.003359,0.000224,  13.967
   278.8,0.000889,0.000583,-0.003560,0.000238,  13.960
   279.0,0.000879,0.000586,-0.003602,0.000189,  13.945
   279.2,0.000883,0.000584,-0.003614,0.000224,  13.939
   279.4,0.000880,0.000582,-0.003583,0.000238,  13.926
   279.6,0.000865,0.000579,-0.003613,0.000189,  13.909
   279.8,0.000860,0.000582,-0.003655,0.000224,  13.897
   280.0,0.000854,0.000579,-0.003707,0.000224,  13.891
   280.2,0.000838,0.000577,-0.003714,0.000189,  13.880
   280.4,0.000837,0.000578,-0.003709,0.000224,  13.865
   280.6,0.000834,0.000571,-0.003674,0.000224,  13.848
   280.8,0.000824,0.000565,-0.003668,0.000224,  13.838
   281.0,0.000825,0.000558,-0.003675,0.000211,  13.826
   281.2,0.000825,0.000558,-0.003675,0.000211,  13.813
   281.4,0.000815,0.000551,-0.003688,0.000224,  13.794
   281.6,0.000816,0.000546,-0.003729,0.000176,  13.788
   281.8,0.000813,0.000546,-0.003777,0.000198,  13.779
   282.0,0.000804,0.000548,-0.003848,0.000211,  13.765
   282.2,0.000805,0.000546,-0.003909,0.000198,  13.752
   282.4,0.000799,0.000541,-0.003963,0.000233,  13.736
   282.6,0.000793,0.000534,-0.004012,0.000247,  13.722
   282.8,0.000791,0.000531,-0.004055,0.000233,  13.711
   283.0,0.000781,0.000531,-0.004085,0.000233,  13.694
   283.2,0.000769,0.000528,-0.004102,0.000233,  13.683
   283.4,0.000753,0.000526,-0.004264,0.000198,  13.667
   283.6,0.000743,0.000519,-0.004484,0.000185,  13.653
   283.8,0.000737,0.000516,-0.004793,0.000185,  13.642
   284.0,0.000736,0.000515,-0.004837,0.000162,  13.629
   284.2,0.000723,0.000505,-0.004773,0.000185,  13.617
   284.4,0.000724,0.000508,-0.004607,0.000198,  13.601
   284.6,0.000728,0.000506,-0.004586,0.000162,  13.585
   284.8,0.000721,0.000501,-0.004576,0.000198,  13.571
   285.0,0.000731,0.000497,-0.004578,0.000211,  13.557
   285.2,0.000734,0.000495,-0.004567,0.000162,  13.540
   285.4,0.000731,0.000496,-0.004598,0.000198,  13.529
   285.6,0.000732,0.000496,-0.004630,0.000198,  13.510
   285.8,0.000721,0.000498,-0.005183,0.000162,  13.499
   286.0,0.000716,0.000496,-0.006024,0.000185,  13.488
   286.2,0.000713,0.000492,-0.007134,0.000198,  13.472
   286.4,0.000710,0.000487,-0.007184,0.000162,  13.454
   286.6,0.000707,0.000486,-0.006839,0.000198,  13.433
   286.8,0.000697,0.000480,-0.006104,0.000211,  13.424
   287.0,0.000704,0.000486,-0.006105,0.000162,  13.411
   287.2,0.000694,0.000487,-0.006260,0.000198,  13.399
   287.4,0.000694,0.000481,-0.006597,0.000211,  13.379
   287.6,0.000691,0.000479,-0.006540,0.000176,  13.361
   287.8,0.000692,0.000473,-0.006383,0.000211,  13.350
   288.0,0.000692,0.000472,-0.006100,0.000224,  13.335
   288.2,0.000685,0.000475,-0.006038,0.000189,  13.321
   288.4,0.000685,0.000467,-0.006027,0.000211,  13.308
   288.6,0.000683,0.000461,-0.006083,0.000224,  13.293
   288.8,0.000680,0.000462,-0.006050,0.000211,  13.279
   289.0,0.000684,0.000466,-0.006005,0.000233,  13.260
   289.2,0.000681,0.000461,-0.005979,0.000247,  13.246
   289.4,0.000668,0.000467,-0.006047,0.000211,  13.231
   289.6,0.000665,0.000474,-0.006161,0.000260,  13.219
   289.8,0.000665,0.000475,-0.006334,0.000260,  13.211
   290.0,0.000658,0.000476,-0.006473,0.000273,  13.193
   290.2,0.000662,0.000474,-0.006641,0.000260,  13.175
   290.4,0.000659,0.000466,-0.006795,0.000260,  13.165
   290.6,0.000659,0.000455,-0.006874,0.000273,  13.142
   290.8,0.000660,0.000452,-0.006924,0.000260,  13.130
   291.0,0.000660,0.000446,-0.006933,0.000247,  13.120
   291.2,0.000660,0.000455,-0.006912,0.000260,  13.103
   291.4,0.000663,0.000455,-0.006982,0.000260,  13.090
   291.6,0.000663,0.000453,-0.007061,0.000247,  13.075
   291.8,0.000654,0.000457,-0.007177,0.000260,  13.066
   292.0,0.000648,0.000459,-0.007328,0.000260,  13.051
   292.2,0.000648,0.000453,-0.007525,0.000247,  13.041
   292.4,0.000645,0.000460,-0.007737,0.000260,  13.028
   292.6,0.000646,0.000460,-0.007880,0.000260,  13.012
   292.8,0.000646,0.000460,-0.008042,0.000260,  13.003
   293.0,0.000646,0.000455,-0.008168,0.000273,  12.986
   293.2,0.000646,0.000454,-0.008230,0.000224,  12.974
   293.4,0.000646,0.000455,-0.008270,0.000211,  12.962
   293.6,0.000646,0.000453,-0.008281,0.000224,  12.945
   293.8,0.000643,0.000452,-0.008350,0.000189,  12.931
   294.0,0.000643,0.000449,-0.008412,0.000224,  12.918
   294.2,0.000646,0.000451,-0.008509,0.000238,  12.908
   294.4,0.000653,0.000451,-0.008617,0.000189,  12.895
   294.6,0.000650,0.000453,-0.008755,0.000224,  12.881
   294.8,0.000633,0.000453,-0.008910,0.000238,  12.871
   295.0,0.000630,0.000454,-0.009072,0.000224,  12.856
   295.2,0.000620,0.000456,-0.009256,0.000260,  12.848
   295.4,0.000618,0.000456,-0.009445,0.000273,  12.838
   295.6,0.000618,0.000454,-0.009810,0.000273,  12.819
   295.8,0.000622,0.000451,-0.010263,0.000273,  12.810
   296.0,0.000622,0.000451,-0.010814,0.000286,  12.801
   296.2,0.000618,0.000459,-0.010907,0.000286,  12.787
   296.4,0.000627,0.000456,-0.010795,0.000273,  12.776
   296.6,0.000630,0.000458,-0.010496,0.000286,  12.758
   296.8,0.000623,0.000463,-0.010535,0.000251,  12.746
   297.0,0.000630,0.000458,-0.010636,0.000251,  12.739
   297.2,0.000633,0.000461,-0.010813,0.000251,  12.731
   297.4,0.000629,0.000469,-0.010846,0.000215,  12.718
   297.6,0.000639,0.000464,-0.010842,0.000251,  12.704
   297.8,0.000642,0.000463,-0.010829,0.000264,  12.695
   298.0,0.000635,0.000460,-0.010908,0.000228,  12.684
   298.2,0.000639,0.000462,-0.011026,0.000264,  12.677
   298.4,0.000639,0.000465,-0.011209,0.000264,  12.661
   298.6,0.000636,0.000470,-0.011271,0.000228,  12.648
   298.8,0.000640,0.000468,-0.011311,0.000313,  12.638
   299.0,0.000637,0.000469,-0.011326,0.000299,  12.632
   299.2,0.000630,0.000473,-0.011405,0.000299,  12.624
   299.4,0.000627,0.000471,-0.011518,0.000313,  12.611
   299.6,0.000627,0.000468,-0.011643,0.000299,  12.602
   299.8,0.000618,0.000468,-0.011807,0.000299,  12.593
   300.0,0.000624,0.000468,-0.011944,0.000299,  12.582
   300.2,0.000630,0.000467,-0.012092,0.000299,  12.573
   300.4,0.000626,0.000465,-0.012246,0.000299,  12.564
   300.6,0.000636,0.000460,-0.012390,0.000277,  12.551
   300.8,0.000639,0.000457,-0.012528,0.000290,  12.542
   301.0,0.000635,0.000457,-0.012665,0.000290,  12.539
   301.2,0.000639,0.000461,-0.012784,0.000255,  12.529
   301.4,0.000639,0.000458,-0.012887,0.000277,  12.525
   301.6,0.000632,0.000460,-0.012975,0.000277,  12.507
   301.8,0.000639,0.000462,-0.013297,0.000290,  12.506
   302.0,0.000642,0.000459,-0.013728,0.000313,  12.498
   302.2,0.000638,0.000464,-0.014267,0.000313,  12.487
   302.4,0.000651,0.000467,-0.014386,0.000326,  12.476
   302.6,0.000654,0.000474,-0.014336,0.000313,  12.465
   302.8,0.000647,0.000475,-0.014141,0.000313,  12.465
   303.0,0.000656,0.000482,-0.014116,0.000326,  12.454
   303.2,0.000650,0.000492,-0.014091,0.000313,  12.450
   303.4,0.000650,0.000496,-0.014060,0.000313,  12.441
   303.6,0.000647,0.000496,-0.014409,0.000313,  12.433
   303.8,0.000647,0.000496,-0.014966,0.000335,  12.427
   304.0,0.000647,0.000501,-0.015706,0.000335,  12.419
   304.2,0.000651,0.000499,-0.015731,0.000313,  12.413
   304.4,0.000648,0.000494,-0.015516,0.000313,  12.406
   304.6,0.000648,0.000493,-0.015047,0.000313,  12.395
   304.8,0.000655,0.000494,-0.014982,0.000290,  12.392
   305.0,0.000659,0.000496,-0.015008,0.000290,  12.385
   305.2,0.000662,0.000490,-0.015096,0.000290,  12.379
   305.4,0.000651,0.000498,-0.015081,0.000255,  12.372
   305.6,0.000654,0.000501,-0.015085,0.000290,  12.370
   305.8,0.000659,0.000499,-0.015077,0.000290,  12.367
   306.0,0.000659,0.000496,-0.015091,0.000290,  12.351
   306.2,0.000666,0.000498,-0.015133,0.000313,  12.353
   306.4,0.000669,0.000497,-0.015193,0.000313,  12.347
   306.6,0.000672,0.000495,-0.015264,0.000290,  12.341
   306.8,0.000672,0.000493,-0.015364,0.000277,  12.335
   307.0,0.000672,0.000495,-0.015481,0.000277,  12.331
   307.2,0.000669,0.000506,-0.015741,0.000255,  12.327
   307.4,0.000666,0.000503,-0.016122,0.000277,  12.321
   307.6,0.000666,0.000498,-0.016582,0.000277,  12.308
   307.8,0.000666,0.000501,-0.016591,0.000255,  12.306
   308.0,0.000666,0.000503,-0.016421,0.000290,  12.302
   308.2,0.000666,0.000495,-0.016075,0.000304,  12.295
   308.4,0.000666,0.000502,-0.016032,0.000317,  12.295
   308.6,0.000673,0.000504,-0.016043,0.000304,  12.292
   308.8,0.000676,0.000507,-0.016124,0.000304,  12.285
   309.0,0.000665,0.000511,-0.016261,0.000304,  12.282
   309.2,0.000671,0.000513,-0.016291,0.000304,  12.275
   309.4,0.000673,0.000515,-0.016315,0.000326,  12.276
   309.6,0.000679,0.000517,-0.016334,0.000339,  12.269
   309.8,0.000690,0.000522,-0.016278,0.000304,  12.263
   310.0,0.000692,0.000523,-0.016200,0.000317,  12.265
   310.2,0.000705,0.000530,-0.016099,0.000330,  12.264
   310.4,0.000708,0.000537,-0.016134,0.000294,  12.263
   310.6,0.000713,0.000531,-0.016232,0.000330,  12.256
   310.8,0.000716,0.000533,-0.016392,0.000343,  12.257
   311.0,0.000723,0.000538,-0.016404,0.000308,  12.250
   311.2,0.000726,0.000540,-0.016359,0.000343,  12.248
   311.4,0.000722,0.000544,-0.016296,0.000356,  12.246
   311.6,0.000735,0.000549,-0.016308,0.000308,  12.242
   311.8,0.000738,0.000550,-0.016342,0.000343,  12.241
   312.0,0.000741,0.000556,-0.016404,0.000356,  12.238
   312.2,0.000754,0.000559,-0.016399,0.000321,  12.237
   312.4,0.000760,0.000561,-0.016370,0.000356,  12.235
   312.6,0.000756,0.000566,-0.016325,0.000370,  12.238
   312.8,0.000763,0.000569,-0.016354,0.000334,  12.233
   313.0,0.000766,0.000568,-0.016385,0.000356,  12.234
   313.2,0.000759,0.000578,-0.016464,0.000383,  12.229
   313.4,0.000759,0.000585,-0.016407,0.000347,  12.229
   313.6,0.000763,0.000585,-0.016281,0.000383,  12.232
   313.8,0.000753,0.000590,-0.016121,0.000396,  12.226
   314.0,0.000757,0.000596,-0.016092,0.000374,  12.224
   314.2,0.000764,0.000597,-0.016097,0.000396,  12.223
   314.4,0.000764,0.000591,-0.016140,0.000396,  12.223
   314.6,0.000761,0.000592,-0.016238,0.000360,  12.222
   314.8,0.000758,0.000591,-0.016405,0.000383,  12.220
   315.0,0.000756,0.000592,-0.016586,0.000383,  12.219
   315.2,0.000742,0.000592,-0.016586,0.000347,  12.216
   315.4,0.000732,0.000587,-0.016529,0.000383,  12.223
   315.6,0.000729,0.000593,-0.016384,0.000383,  12.219
   315.8,0.000719,0.000594,-0.016258,0.000347,  12.220
   316.0,0.000720,0.000589,-0.016138,0.000383,  12.216
   316.2,0.000720,0.000587,-0.015964,0.000383,  12.216
   316.4,0.000713,0.000585,-0.015867,0.000347,  12.220
   316.6,0.000717,0.000578,-0.015797,0.000383,  12.220
   316.8,0.000717,0.000575,-0.015757,0.000370,  12.218
   317.0,0.000711,0.000570,-0.015721,0.000370,  12.212
   317.2,0.000715,0.000567,-0.015738,0.000370,  12.216
   317.4,0.000715,0.000570,-0.015765,0.000356,  12.210
   317.6,0.000711,0.000565,-0.015729,0.000370,  12.216
   317.8,0.000715,0.000565,-0.015665,0.000334,  12.216
   318.0,0.000712,0.000565,-0.015596,0.000356,  12.211
   318.2,0.000712,0.000560,-0.015498,0.000370,  12.213
   318.4,0.000716,0.000553,-0.015484,0.000334,  12.214
   318.6,0.000710,0.000551,-0.015534,0.000356,  12.211
   318.8,0.000707,0.000546,-0.015595,0.000370,  12.214
   319.0,0.000701,0.000545,-0.015530,0.000334,  12.211
   319.2,0.000701,0.000546,-0.015437,0.000356,  12.212
   319.4,0.000704,0.000555,-0.015292,0.000370,  12.213
   319.6,0.000701,0.000556,-0.015543,0.000356,  12.213
   319.8,0.000701,0.000553,-0.015966,0.000379,  12.213
   320.0,0.000698,0.000550,-0.016572,0.000392,  12.215
   320.2,0.000692,0.000546,-0.016565,0.000392,  12.214
   320.4,0.000689,0.000544,-0.016315,0.000392,  12.210
   320.6,0.000689,0.000541,-0.015836,0.000405,  12.216
   320.8,0.000687,0.000543,-0.015600,0.000392,  12.216
   321.0,0.000687,0.000538,-0.015369,0.000379,  12.217
   321.2,0.000684,0.000541,-0.015130,0.000392,  12.214
   321.4,0.000691,0.000541,-0.015279,0.000379,  12.215
   321.6,0.000696,0.000534,-0.015652,0.000379,  12.210
   321.8,0.000696,0.000534,-0.016212,0.000392,  12.212
   322.0,0.000706,0.000536,-0.016120,0.000392,  12.213
   322.2,0.000709,0.000532,-0.015796,0.000392,  12.214
   322.4,0.000705,0.000530,-0.015259,0.000405,  12.213
   322.6,0.000715,0.000534,-0.015037,0.000370,  12.213
   322.8,0.000715,0.000534,-0.014885,0.000370,  12.209
   323.0,0.000714,0.000531,-0.014778,0.000370,  12.210
   323.2,0.000720,0.000538,-0.014804,0.000334,  12.209
   323.4,0.000716,0.000539,-0.014915,0.000370,  12.211
   323.6,0.000716,0.000541,-0.015126,0.000383,  12.213
   323.8,0.000713,0.000544,-0.014998,0.000360,  12.212
   324.0,0.000707,0.000541,-0.014742,0.000396,  12.209
   324.2,0.000708,0.000551,-0.014352,0.000409,  12.207
   324.4,0.000717,0.000554,-0.014159,0.000387,  12.207
   324.6,0.000720,0.000549,-0.014030,0.000396,  12.204
   324.8,0.000720,0.000551,-0.013928,0.000396,  12.204
   325.0,0.000713,0.000548,-0.013811,0.000374,  12.206
   325.2,0.000699,0.000541,-0.013715,0.000396,  12.204
   325.4,0.000692,0.000544,-0.013620,0.000396,  12.201
   325.6,0.000682,0.000541,-0.013433,0.000360,  12.203
   325.8,0.000679,0.000534,-0.013212,0.000383,  12.200
   326.0,0.000669,0.000534,-0.012938,0.000383,  12.200
   326.2,0.000666,0.000531,-0.012768,0.000347,  12.195
   326.4,0.000677,0.000528,-0.012638,0.000383,  12.192
   326.6,0.000674,0.000531,-0.012538,0.000370,  12.192
   326.8,0.000667,0.000531,-0.012454,0.000370,  12.190
   327.0,0.000667,0.000528,-0.012418,0.000370,  12.186
   327.2,0.000670,0.000527,-0.012380,0.000370,  12.184
   327.4,0.000654,0.000524,-0.012395,0.000370,  12.182
   327.6,0.000651,0.000521,-0.012329,0.000334,  12.180
   327.8,0.000651,0.000521,-0.012267,0.000370,  12.177
   328.0,0.000648,0.000513,-0.012207,0.000370,  12.178
   328.2,0.000649,0.000508,-0.012147,0.000334,  12.176
   328.4,0.000646,0.000508,-0.012074,0.000370,  12.171
   328.6,0.000643,0.000510,-0.012014,0.000370,  12.166
   328.8,0.000644,0.000506,-0.012424,0.000334,  12.163
   329.0,0.000641,0.000505,-0.013089,0.000356,  12.163
   329.2,0.000628,0.000511,-0.013982,0.000370,  12.161
   329.4,0.000632,0.000509,-0.013901,0.000321,  12.152
   329.6,0.000632,0.000509,-0.013436,0.000343,  12.150
   329.8,0.000620,0.000501,-0.012588,0.000356,  12.147
   330.0,0.000621,0.000500,-0.012239,0.000308,  12.145
   330.2,0.000618,0.000492,-0.011953,0.000343,  12.141
   330.4,0.000612,0.000487,-0.011712,0.000356,  12.139
   330.6,0.000613,0.000482,-0.011541,0.000343,  12.134
   330.8,0.000607,0.000477,-0.011452,0.000365,  12.130
   331.0,0.000595,0.000474,-0.011433,0.000379,  12.128
   331.2,0.000592,0.000470,-0.011305,0.000343,  12.126
   331.4,0.000589,0.000465,-0.011153,0.000330,  12.117
   331.6,0.000576,0.000470,-0.010977,0.000343,  12.112
   331.8,0.000580,0.000464,-0.010946,0.000294,  12.109
   332.0,0.000577,0.000462,-0.010985,0.000317,  12.102
   332.2,0.000567,0.000455,-0.011068,0.000317,  12.099
   332.4,0.000562,0.000456,-0.010979,0.000281,  12.090
   332.6,0.000563,0.000452,-0.010846,0.000304,  12.084
   332.8,0.000556,0.000455,-0.010655,0.000304,  12.080
   333.0,0.000557,0.000450,-0.010689,0.000281,  12.078
   333.2,0.000551,0.000445,-0.010810,0.000304,  12.067
   333.4,0.000548,0.000445,-0.011022,0.000304,  12.060
   333.6,0.000536,0.000438,-0.011022,0.000281,  12.055
   333.8,0.000534,0.000429,-0.010971,0.000304,  12.051
   334.0,0.000531,0.000423,-0.010854,0.000304,  12.045
   334.2,0.000514,0.000415,-0.010789,0.000281,  12.043
   334.4,0.000511,0.000406,-0.010760,0.000304,  12.031
   334.6,0.000511,0.000406,-0.010722,0.000304,  12.026
   334.8,0.000504,0.000408,-0.010727,0.000268,  12.024
   335.0,0.000505,0.000399,-0.010762,0.000290,  12.011
   335.2,0.000502,0.000397,-0.010837,0.000290,  12.005
   335.4,0.000500,0.000391,-0.010808,0.000255,  11.999
   335.6,0.000501,0.000381,-0.010750,0.000255,  11.990
   335.8,0.000501,0.000377,-0.010650,0.000242,  11.984
   336.0,0.000488,0.000379,-0.010720,0.000255,  11.980
   336.2,0.000488,0.000376,-0.010849,0.000242,  11.970
   336.4,0.000488,0.000369,-0.011040,0.000277,  11.964
   336.6,0.000488,0.000377,-0.011308,0.000277,  11.956
   336.8,0.000492,0.000377,-0.011320,0.000242,  11.952
   337.0,0.000489,0.000372,-0.011262,0.000264,  11.945
   337.2,0.000486,0.000371,-0.011134,0.000264,  11.931
   337.4,0.000487,0.000374,-0.011037,0.000228,  11.924
   337.6,0.000487,0.000376,-0.010923,0.000264,  11.916
   337.8,0.000476,0.000375,-0.010772,0.000264,  11.914
   338.0,0.000479,0.000373,-0.010721,0.000228,  11.900
   338.2,0.000479,0.000381,-0.010716,0.000264,  11.895
   338.4,0.000472,0.000378,-0.010745,0.000264,  11.886
   338.6,0.000471,0.000376,-0.010752,0.000264,  11.874
   338.8,0.000468,0.000378,-0.010750,0.000299,  11.870
   339.0,0.000458,0.000373,-0.010791,0.000299,  11.862
   339.2,0.000459,0.000376,-0.010793,0.000264,  11.853
   339.4,0.000459,0.000372,-0.010771,0.000264,  11.843
   339.6,0.000462,0.000369,-0.010749,0.000264,  11.837
   339.8,0.000466,0.000371,-0.010814,0.000228,  11.826
   340.0,0.000462,0.000371,-0.010913,0.000264,  11.819
   340.2,0.000462,0.000369,-0.011051,0.000264,  11.814
   340.4,0.000455,0.000370,-0.011496,0.000242,  11.800
   340.6,0.000458,0.000368,-0.012108,0.000290,  11.791
   340.8,0.000454,0.000373,-0.012894,0.000290,  11.783
   341.0,0.000473,0.000370,-0.012872,0.000255,  11.776
   341.2,0.000473,0.000363,-0.012573,0.000277,  11.765
   341.4,0.000473,0.000365,-0.011966,0.000277,  11.757
   341.6,0.000473,0.000360,-0.011811,0.000242,  11.748
   341.8,0.000480,0.000357,-0.011748,0.000264,  11.738
   342.0,0.000480,0.000357,-0.011760,0.000264,  11.731
   342.2,0.000475,0.000360,-0.011930,0.000242,  11.722
   342.4,0.000476,0.000369,-0.012217,0.000277,  11.711
   342.6,0.000476,0.000371,-0.012626,0.000277,  11.704
   342.8,0.000469,0.000374,-0.012772,0.000255,  11.696
   343.0,0.000473,0.000378,-0.012873,0.000277,  11.690
   343.2,0.000473,0.000380,-0.012885,0.000277,  11.683
   343.4,0.000459,0.000377,-0.012910,0.000255,  11.670
   343.6,0.000453,0.000375,-0.012882,0.000277,  11.661
   343.8,0.000453,0.000374,-0.012831,0.000277,  11.655
   344.0,0.000456,0.000375,-0.012835,0.000255,  11.642
   344.2,0.000463,0.000372,-0.012836,0.000277,  11.638
   344.4,0.000466,0.000374,-0.012833,0.000277,  11.629
   344.6,0.000466,0.000370,-0.012825,0.000290,  11.620
   344.8,0.000469,0.000371,-0.012829,0.000290,  11.617
   345.0,0.000472,0.000370,-0.012845,0.000304,  11.605
   345.2,0.000469,0.000380,-0.012859,0.000304,  11.596
   345.4,0.000469,0.000382,-0.012887,0.000281,  11.586
   345.6,0.000465,0.000379,-0.012899,0.000304,  11.580
   345.8,0.000468,0.000380,-0.012929,0.000304,  11.575
   346.0,0.000464,0.000382,-0.013088,0.000304,  11.567
   346.2,0.000467,0.000381,-0.013321,0.000313,  11.559
   346.4,0.000473,0.000381,-0.013611,0.000313,  11.546
   346.6,0.000477,0.000381,-0.014210,0.000326,  11.537
   346.8,0.000483,0.000382,-0.014992,0.000326,  11.533
   347.0,0.000483,0.000388,-0.015981,0.000339,  11.525
   347.2,0.000483,0.000391,-0.016059,0.000304,  11.518
   347.4,0.000486,0.000391,-0.015780,0.000317,  11.507
   347.6,0.000486,0.000386,-0.015161,0.000317,  11.497
   347.8,0.000483,0.000386,-0.015033,0.000281,  11.490
   348.0,0.000483,0.000386,-0.014937,0.000304,  11.482
   348.2,0.000483,0.000386,-0.014941,0.000304,  11.476
   348.4,0.000490,0.000396,-0.014842,0.000317,  11.473
   348.6,0.000490,0.000398,-0.014719,0.000339,  11.460
   348.8,0.000486,0.000394,-0.014584,0.000339,  11.459
   349.0,0.000496,0.000390,-0.014629,0.000352,  11.445
   349.2,0.000496,0.000387,-0.014741,0.000339,  11.440
   349.4,0.000489,0.000390,-0.014920,0.000339,  11.433
   349.6,0.000489,0.000393,-0.015022,0.000317,  11.420
   349.8,0.000482,0.000390,-0.015113,0.000304,  11.414
   350.0,0.000485,0.000398,-0.015186,0.000304,  11.407
   350.2,0.000488,0.000405,-0.015408,0.000281,  11.398
   350.4,0.000491,0.000404,-0.015715,0.000304,  11.396
   350.6,0.000494,0.000404,-0.016091,0.000304,  11.387
   350.8,0.000490,0.000401,-0.016181,0.000304,  11.382
   351.0,0.000497,0.000395,-0.016162,0.000313,  11.371
   351.2,0.000502,0.000402,-0.016044,0.000326,  11.363
   351.4,0.000496,0.000404,-0.016048,0.000304,  11.358
   351.6,0.000502,0.000406,-0.016076,0.000317,  11.350
   351.8,0.000505,0.000406,-0.016132,0.000330,  11.345
   352.0,0.000504,0.000414,-0.016201,0.000281,  11.340
   352.2,0.000511,0.000416,-0.016272,0.000317,  11.335
   352.4,0.000508,0.000422,-0.016360,0.000317,  11.326
   352.6,0.000505,0.000423,-0.016478,0.000317,  11.320
   352.8,0.000506,0.000422,-0.016602,0.000339,  11.314
   353.0,0.000506,0.000432,-0.016735,0.000326,  11.311
