Run Name,group_4 2/18 36 run 1
Run Date,03:31:53 PM   02-18-14
Method Name,36%B-Isocratic.52
Export Format Version, 1.00
Method ID, 1755
Points/Second, 5.00
Number of Records,   3042
Offset from Run Start Time,00:00:00
Run End Time,00:10:11
Time,Second
QuadTec 1, (280.0 nm), AU
QuadTec 2, (260.0 nm), AU
Gradient Pump,<Not Selected>
QuadTec 3, (214.0 nm), AU
QuadTec 4, (405.0 nm), AU
Conductivity,mS/cm
Trace 6,<Not Available>
GP Pressure,<Not Selected>
Volume,<Not Selected>
Fraction,<Not Available>
Time,QuadTec 1,QuadTec 2,QuadTec 3,QuadTec 4,Conductivity
     0.0,0.000151,0.000000,0.010063,-0.000308,  83.954
     0.2,0.000196,0.000000,0.010063,-0.000292,  83.969
     0.4,-0.000740,0.000000,0.010063,-0.000182,  83.987
     0.6,-0.001074,0.000000,0.010063,-0.000084,  83.990
     0.8,0.000000,0.000000,0.000000,-0.004186,  84.007
     1.0,0.000000,0.000000,0.000000,0.000000,  84.016
     1.2,0.000000,0.000000,0.000000,0.000000,  84.027
     1.4,0.000000,0.000000,0.000000,0.000000,  84.038
     1.6,0.000000,0.000000,0.000000,0.000000,  84.044
     1.8,0.000000,0.000000,0.000000,0.000000,  84.053
     2.0,0.000000,0.000000,0.000000,0.000000,  84.054
     2.2,0.000000,0.000000,0.000000,0.000000,  84.058
     2.4,0.000000,0.000000,0.000000,0.000000,  84.062
     2.6,0.000000,0.000000,0.000000,0.000000,  84.064
     2.8,0.000000,0.000000,0.000000,0.000000,  84.072
     3.0,0.000000,0.000000,0.000000,0.000000,  84.076
     3.2,0.000000,0.000000,0.000000,0.000000,  84.087
     3.4,0.000000,0.000000,0.000000,0.000000,  84.090
     3.6,0.000000,0.000000,0.000000,0.000000,  84.090
     3.8,0.000000,0.000000,0.000000,0.000000,  84.095
     4.0,0.000000,0.000000,0.000000,0.000000,  84.101
     4.2,0.000000,0.000000,0.000000,0.000000,  84.102
     4.4,0.000070,0.000000,0.000000,0.000000,  84.078
     4.6,0.000109,0.000204,0.000016,0.000000,  83.982
     4.8,0.000147,0.000193,0.000178,0.000000,  83.832
     5.0,0.000154,0.000180,0.000314,0.000000,  83.775
     5.2,0.000152,0.000171,0.000431,0.000000,  83.751
     5.4,0.000118,0.000160,0.000523,0.000195,  83.727
     5.6,0.000104,0.000158,0.000586,0.000159,  83.760
     5.8,0.000105,0.000147,0.000629,0.000159,  83.868
     6.0,0.000101,0.000143,0.000737,0.000159,  83.895
     6.2,0.000089,0.000137,0.000854,0.000159,  83.926
     6.4,0.000087,0.000132,0.000966,0.000159,  83.951
     6.6,0.000091,0.000127,0.000729,0.000159,  83.970
     6.8,-0.000089,0.000016,0.000325,0.000159,  83.988
     7.0,-0.000354,-0.000152,-0.000265,0.000159,  84.002
     7.2,-0.000693,-0.000366,-0.000787,0.000159,  84.013
     7.4,-0.000888,-0.000543,-0.001365,0.000159,  84.023
     7.6,-0.001043,-0.000727,-0.001993,0.000172,  84.037
     7.8,-0.001157,-0.000914,-0.002296,0.000185,  84.009
     8.0,-0.001179,-0.000976,-0.002470,0.000042,  83.902
     8.2,-0.001129,-0.000979,-0.002514,-0.000165,  83.781
     8.4,-0.001008,-0.000921,-0.002459,-0.000438,  83.724
     8.6,-0.000942,-0.000864,-0.002306,-0.000593,  83.668
     8.8,-0.000871,-0.000776,-0.002033,-0.000710,  83.710
     9.0,-0.000789,-0.000659,-0.001793,-0.000788,  83.744
     9.2,-0.000708,-0.000585,-0.001516,-0.000775,  83.793
     9.4,-0.000638,-0.000515,-0.001219,-0.000723,  83.878
     9.6,-0.000556,-0.000447,-0.000983,-0.000606,  83.915
     9.8,-0.000477,-0.000368,-0.000759,-0.000529,  83.942
    10.0,-0.000442,-0.000290,-0.000567,-0.000464,  83.963
    10.2,-0.000414,-0.000199,-0.000770,-0.000399,  83.977
    10.4,-0.000414,-0.000318,-0.001172,-0.000334,  83.995
    10.6,-0.000541,-0.000540,-0.001796,-0.000282,  84.005
    10.8,-0.000724,-0.000862,-0.002636,-0.000243,  84.022
    11.0,-0.000983,-0.000993,-0.003694,-0.000295,  84.029
    11.2,-0.001091,-0.001087,-0.004974,-0.000412,  84.042
    11.4,-0.001142,-0.001124,-0.005091,-0.000593,  84.056
    11.6,-0.001155,-0.001097,-0.004740,-0.000671,  84.057
    11.8,-0.001115,-0.001014,-0.003930,-0.000749,  84.062
    12.0,-0.001012,-0.000867,-0.003496,-0.000814,  84.071
    12.2,-0.000868,-0.000781,-0.003024,-0.000840,  84.074
    12.4,-0.000780,-0.000691,-0.002515,-0.000852,  84.086
    12.6,-0.000687,-0.000598,-0.002153,-0.000814,  84.090
    12.8,-0.000603,-0.000528,-0.001852,-0.000788,  84.097
    13.0,-0.000536,-0.000454,-0.001606,-0.000723,  84.098
    13.2,-0.000468,-0.000389,-0.001436,-0.000645,  84.107
    13.4,-0.000413,-0.000334,-0.001129,-0.000541,  84.161
    13.6,-0.000362,-0.000277,-0.000821,-0.000499,  84.160
    13.8,-0.000304,-0.000229,-0.000502,-0.000435,  84.174
    14.0,-0.000248,-0.000179,-0.000240,-0.000396,  84.178
    14.2,-0.000204,-0.000130,0.000008,-0.000380,  84.178
    14.4,-0.000148,-0.000081,0.000236,-0.000328,  84.178
    14.6,-0.000100,-0.000047,0.000412,-0.000253,  84.180
    14.8,-0.000075,-0.000022,0.000553,-0.000188,  84.127
    15.0,-0.000045,-0.000009,0.000649,-0.000149,  84.039
    15.2,-0.000034,-0.000003,0.000824,-0.000110,  83.886
    15.4,-0.000025,0.000011,0.001031,-0.000071,  83.832
    15.6,-0.000005,0.000021,0.001257,-0.000032,  83.840
    15.8,0.000003,0.000033,0.001340,-0.000019,  83.887
    16.0,0.000007,0.000037,0.001384,0.000006,  83.913
    16.2,0.000021,0.000046,0.001372,0.000019,  83.947
    16.4,0.000029,0.000059,0.001470,0.000032,  83.973
    16.6,0.000038,0.000064,0.001593,0.000058,  83.986
    16.8,0.000058,0.000077,0.001763,0.000058,  84.011
    17.0,0.000073,0.000085,0.001748,0.000058,  84.025
    17.2,-0.000122,-0.000054,0.001635,0.000071,  84.035
    17.4,-0.000418,-0.000264,0.001462,0.000071,  84.052
    17.6,-0.000816,-0.000546,0.001015,0.000084,  84.057
    17.8,-0.000987,-0.000726,0.000381,0.000123,  84.061
    18.0,-0.001097,-0.000892,-0.000414,0.000149,  83.976
    18.2,-0.001144,-0.001041,-0.000704,0.000201,  83.836
    18.4,-0.001131,-0.001048,-0.000823,0.000058,  83.748
    18.6,-0.001083,-0.000969,-0.000780,-0.000188,  83.717
    18.8,-0.000980,-0.000815,-0.000768,-0.000538,  83.705
    19.0,-0.000834,-0.000729,-0.000703,-0.000642,  83.740
    19.2,-0.000743,-0.000630,-0.000575,-0.000681,  83.842
    19.4,-0.000645,-0.000530,-0.000435,-0.000668,  83.883
    19.6,-0.000556,-0.000450,-0.000269,-0.000642,  83.916
    19.8,-0.000481,-0.000381,-0.000072,-0.000613,  83.950
    20.0,-0.000396,-0.000315,-0.000031,-0.000509,  83.964
    20.2,-0.000325,-0.000421,-0.000057,-0.000444,  83.982
    20.4,-0.000468,-0.000624,-0.000150,-0.000428,  84.001
    20.6,-0.000705,-0.000906,-0.000394,-0.000328,  84.021
    20.8,-0.001056,-0.001037,-0.000754,-0.000276,  84.034
    21.0,-0.001204,-0.001138,-0.001226,-0.000224,  84.041
    21.2,-0.001294,-0.001208,-0.001822,-0.000172,  84.050
    21.4,-0.001341,-0.001200,-0.002009,-0.000133,  84.012
    21.6,-0.001307,-0.001140,-0.002114,-0.000260,  83.889
    21.8,-0.001216,-0.001029,-0.002120,-0.000392,  83.767
    22.0,-0.001052,-0.000942,-0.002037,-0.000626,  83.750
    22.2,-0.000945,-0.000836,-0.001860,-0.000742,  83.776
    22.4,-0.000844,-0.000711,-0.001611,-0.000856,  83.824
    22.6,-0.000725,-0.000631,-0.001379,-0.000859,  83.865
    22.8,-0.000633,-0.000567,-0.001121,-0.000833,  83.913
    23.0,-0.000558,-0.000512,-0.000837,-0.000804,  83.935
    23.2,-0.000484,-0.000466,-0.000639,-0.000665,  83.952
    23.4,-0.000452,-0.000382,-0.000471,-0.000587,  83.976
    23.6,-0.000456,-0.000290,-0.000343,-0.000545,  83.999
    23.8,-0.000476,-0.000182,-0.000448,-0.000457,  84.016
    24.0,-0.000610,-0.000306,-0.000709,-0.000392,  84.024
    24.2,-0.000820,-0.000539,-0.001096,-0.000341,  84.036
    24.4,-0.001091,-0.000886,-0.001401,-0.000279,  84.044
    24.6,-0.001154,-0.000998,-0.001736,-0.000357,  84.057
    24.8,-0.001150,-0.001045,-0.002111,-0.000499,  84.068
    25.0,-0.001065,-0.001031,-0.002157,-0.000707,  84.073
    25.2,-0.000996,-0.000991,-0.002062,-0.000823,  84.084
    25.4,-0.000892,-0.000897,-0.001828,-0.000914,  84.087
    25.6,-0.000751,-0.000758,-0.001603,-0.001005,  84.088
    25.8,-0.000664,-0.000673,-0.001290,-0.000979,  84.092
    26.0,-0.000587,-0.000588,-0.000926,-0.000901,  84.100
    26.2,-0.000518,-0.000508,-0.000679,-0.000797,  84.155
    26.4,-0.000455,-0.000437,-0.000462,-0.000720,  84.161
    26.6,-0.000410,-0.000381,-0.000264,-0.000629,  84.168
    26.8,-0.000368,-0.000327,-0.000062,-0.000551,  84.170
    27.0,-0.000348,-0.000273,0.000130,-0.000486,  84.178
    27.2,-0.000304,-0.000227,0.000318,-0.000422,  84.181
    27.4,-0.000243,-0.000180,0.000520,-0.000357,  84.181
    27.6,-0.000190,-0.000134,0.000717,-0.000305,  84.191
    27.8,-0.000135,-0.000079,0.000920,-0.000253,  84.169
    28.0,-0.000087,-0.000021,0.001116,-0.000201,  84.104
    28.2,-0.000026,0.000009,0.001313,-0.000149,  83.962
    28.4,0.000008,0.000032,0.001504,-0.000110,  83.807
    28.6,0.000031,0.000052,0.001604,-0.000097,  83.748
    28.8,0.000042,0.000067,0.001657,-0.000058,  83.763
    29.0,0.000060,0.000083,0.001682,-0.000006,  83.788
    29.2,0.000068,0.000089,0.001714,0.000032,  83.837
    29.4,0.000071,0.000094,0.001757,0.000058,  83.886
    29.6,0.000078,0.000105,0.001779,0.000084,  83.919
    29.8,0.000084,0.000109,0.001807,0.000049,  83.956
    30.0,0.000084,0.000041,0.001926,0.000071,  83.977
    30.2,-0.000068,-0.000051,0.002075,0.000036,  83.996
    30.4,-0.000299,-0.000184,0.002250,0.000036,  84.018
    30.6,-0.000611,-0.000368,0.001760,0.000084,  84.031
    30.8,-0.000797,-0.000590,0.000945,0.000110,  84.042
    31.0,-0.000959,-0.000861,-0.000189,0.000110,  84.055
    31.2,-0.001106,-0.000981,-0.000733,0.000123,  84.063
    31.4,-0.001161,-0.001054,-0.001163,-0.000019,  83.995
    31.6,-0.001158,-0.001067,-0.001474,-0.000227,  83.834
    31.8,-0.001103,-0.001033,-0.001577,-0.000538,  83.739
    32.0,-0.001035,-0.000986,-0.001515,-0.000681,  83.719
    32.2,-0.000931,-0.000900,-0.001293,-0.000785,  83.696
    32.4,-0.000794,-0.000768,-0.001138,-0.000862,  83.740
    32.6,-0.000703,-0.000686,-0.000920,-0.000875,  83.838
    32.8,-0.000616,-0.000597,-0.000647,-0.000836,  83.898
    33.0,-0.000538,-0.000516,-0.000430,-0.000772,  83.922
    33.2,-0.000449,-0.000442,-0.000227,-0.000694,  83.953
    33.4,-0.000357,-0.000373,-0.000018,-0.000616,  83.980
    33.6,-0.000259,-0.000307,-0.000081,-0.000525,  84.000
    33.8,-0.000379,-0.000426,-0.000286,-0.000448,  84.020
    34.0,-0.000614,-0.000635,-0.000649,-0.000383,  84.029
    34.2,-0.000942,-0.000933,-0.001008,-0.000331,  84.043
    34.4,-0.001071,-0.001063,-0.001422,-0.000318,  84.060
    34.6,-0.001161,-0.001145,-0.001931,-0.000331,  84.062
    34.8,-0.001191,-0.001186,-0.002077,-0.000383,  84.066
    35.0,-0.001186,-0.001163,-0.002061,-0.000448,  84.080
    35.2,-0.001136,-0.001076,-0.001931,-0.000564,  84.091
    35.4,-0.001042,-0.000935,-0.001787,-0.000694,  84.137
    35.6,-0.000906,-0.000844,-0.001564,-0.000746,  84.158
    35.8,-0.000823,-0.000745,-0.001290,-0.000785,  84.166
    36.0,-0.000725,-0.000638,-0.001067,-0.000810,  84.169
    36.2,-0.000623,-0.000554,-0.000833,-0.000785,  84.180
    36.4,-0.000544,-0.000484,-0.000610,-0.000707,  84.178
    36.6,-0.000477,-0.000413,-0.000377,-0.000590,  84.186
    36.8,-0.000411,-0.000344,-0.000149,-0.000525,  84.190
    37.0,-0.000348,-0.000284,0.000079,-0.000461,  84.193
    37.2,-0.000294,-0.000230,0.000291,-0.000396,  84.199
    37.4,-0.000235,-0.000175,0.000509,-0.000331,  84.205
    37.6,-0.000177,-0.000122,0.000712,-0.000279,  84.207
    37.8,-0.000131,-0.000071,0.000929,-0.000253,  84.210
    38.0,-0.000072,-0.000034,0.001146,-0.000214,  84.206
    38.2,-0.000033,-0.000008,0.001358,-0.000162,  84.201
    38.4,-0.000016,0.000014,0.001487,-0.000172,  84.124
    38.6,0.000006,0.000036,0.001587,-0.000110,  83.991
    38.8,0.000022,0.000049,0.001645,-0.000094,  83.864
    39.0,0.000029,0.000056,0.001673,-0.000068,  83.861
    39.2,0.000038,0.000061,0.001777,0.000019,  83.890
    39.4,0.000046,0.000066,0.001870,0.000045,  83.926
    39.6,0.000047,0.000077,0.001985,0.000058,  83.963
    39.8,0.000050,0.000083,0.001844,0.000058,  83.995
    40.0,0.000060,0.000089,0.001571,0.000071,  84.015
    40.2,0.000071,0.000091,0.001172,0.000071,  84.035
    40.4,0.000081,0.000100,0.001264,0.000071,  84.053
    40.6,-0.000079,0.000013,0.001566,0.000084,  84.068
    40.8,-0.000325,-0.000115,0.002068,0.000084,  84.075
    41.0,-0.000652,-0.000276,0.001722,0.000084,  84.084
    41.2,-0.000835,-0.000467,0.001072,0.000110,  84.148
    41.4,-0.000993,-0.000689,0.000108,0.000123,  84.098
    41.6,-0.001113,-0.000943,-0.000183,0.000136,  83.926
    41.8,-0.001105,-0.000983,-0.000299,-0.000006,  83.760
    42.0,-0.001022,-0.000934,-0.000254,-0.000227,  83.726
    42.2,-0.000848,-0.000798,-0.000233,-0.000564,  83.733
    42.4,-0.000754,-0.000719,-0.000139,-0.000681,  83.772
    42.6,-0.000666,-0.000627,0.000024,-0.000746,  83.825
    42.8,-0.000563,-0.000525,0.000179,-0.000759,  83.890
    43.0,-0.000481,-0.000445,0.000376,-0.000733,  83.917
    43.2,-0.000415,-0.000374,0.000578,-0.000668,  83.952
    43.4,-0.000349,-0.000310,0.000737,-0.000551,  83.979
    43.6,-0.000424,-0.000387,0.000902,-0.000486,  84.000
    43.8,-0.000563,-0.000536,0.001050,-0.000422,  84.023
    44.0,-0.000772,-0.000761,0.000608,-0.000357,  84.034
    44.2,-0.001051,-0.000891,-0.000121,-0.000292,  84.056
    44.4,-0.001169,-0.001014,-0.001142,-0.000227,  84.058
    44.6,-0.001266,-0.001117,-0.001576,-0.000162,  84.073
    44.8,-0.001339,-0.001144,-0.001855,-0.000240,  84.064
    45.0,-0.001328,-0.001136,-0.001989,-0.000409,  83.980
    45.2,-0.001263,-0.001082,-0.002014,-0.000668,  83.842
    45.4,-0.001141,-0.001006,-0.001899,-0.000785,  83.789
    45.6,-0.001045,-0.000902,-0.001650,-0.000875,  83.798
    45.8,-0.000936,-0.000770,-0.001433,-0.000940,  83.853
    46.0,-0.000801,-0.000683,-0.001181,-0.000927,  83.889
    46.2,-0.000702,-0.000597,-0.000883,-0.000875,  83.929
    46.4,-0.000619,-0.000514,-0.000600,-0.000759,  83.963
    46.6,-0.000534,-0.000431,-0.000322,-0.000668,  83.989
    46.8,-0.000432,-0.000357,-0.000013,-0.000603,  84.012
    47.0,-0.000333,-0.000285,0.000044,-0.000525,  84.028
    47.2,-0.000219,-0.000402,-0.000008,-0.000473,  84.041
    47.4,-0.000356,-0.000620,-0.000199,-0.000422,  84.054
    47.6,-0.000622,-0.000941,-0.000488,-0.000418,  84.069
    47.8,-0.000992,-0.001058,-0.000799,-0.000344,  84.082
    48.0,-0.001097,-0.001126,-0.001172,-0.000380,  84.141
    48.2,-0.001140,-0.001146,-0.001638,-0.000418,  84.150
    48.4,-0.001092,-0.001132,-0.001766,-0.000448,  84.161
    48.6,-0.001034,-0.001076,-0.001743,-0.000551,  84.162
    48.8,-0.000941,-0.000973,-0.001610,-0.000694,  84.168
    49.0,-0.000791,-0.000830,-0.001455,-0.000875,  84.175
    49.2,-0.000699,-0.000743,-0.001227,-0.000901,  84.173
    49.4,-0.000622,-0.000646,-0.000927,-0.000875,  84.171
    49.6,-0.000537,-0.000544,-0.000685,-0.000785,  84.179
    49.8,-0.000466,-0.000464,-0.000430,-0.000720,  84.186
    50.0,-0.000407,-0.000393,-0.000182,-0.000629,  84.192
    50.2,-0.000343,-0.000330,0.000051,-0.000538,  84.200
    50.4,-0.000288,-0.000269,0.000283,-0.000473,  84.204
    50.6,-0.000242,-0.000216,0.000510,-0.000409,  84.208
    50.8,-0.000188,-0.000171,0.000728,-0.000357,  84.216
    51.0,-0.000130,-0.000117,0.000915,-0.000305,  84.225
    51.2,-0.000072,-0.000062,0.001102,-0.000302,  84.223
    51.4,-0.000006,-0.000008,0.001283,-0.000263,  84.195
    51.6,0.000028,0.000030,0.001460,-0.000211,  84.080
    51.8,0.000049,0.000056,0.001616,-0.000195,  83.924
    52.0,0.000053,0.000075,0.001781,-0.000133,  83.826
    52.2,0.000055,0.000099,0.001946,-0.000094,  83.782
    52.4,0.000061,0.000111,0.002111,-0.000078,  83.763
    52.6,0.000072,0.000116,0.002215,-0.000003,  83.767
    52.8,0.000089,0.000124,0.002279,0.000023,  83.797
    53.0,0.000097,0.000131,0.002301,0.000013,  83.822
    53.2,0.000102,0.000133,0.002415,0.000062,  83.865
    53.4,0.000105,0.000146,0.002568,0.000075,  83.913
    53.6,0.000045,0.000170,0.002743,0.000039,  83.947
    53.8,-0.000054,0.000201,0.002377,0.000075,  83.989
    54.0,-0.000191,-0.000006,0.001761,0.000075,  84.015
    54.2,-0.000386,-0.000322,0.000892,0.000039,  84.037
    54.4,-0.000638,-0.000750,0.000253,0.000075,  84.059
    54.6,-0.000951,-0.000927,-0.000395,-0.000055,  84.073
    54.8,-0.001104,-0.001033,-0.001057,-0.000286,  84.135
    55.0,-0.001192,-0.001068,-0.001496,-0.000522,  84.143
    55.2,-0.001229,-0.001133,-0.001831,-0.000639,  84.161
    55.4,-0.001272,-0.001178,-0.002050,-0.000717,  84.172
    55.6,-0.001283,-0.001201,-0.002188,-0.000781,  84.178
    55.8,-0.001263,-0.001162,-0.002202,-0.000807,  84.153
    56.0,-0.001186,-0.001067,-0.002124,-0.000921,  84.126
    56.2,-0.001074,-0.000921,-0.001943,-0.000950,  84.115
    56.4,-0.000922,-0.000824,-0.001751,-0.000992,  84.113
    56.6,-0.000808,-0.000724,-0.001518,-0.000956,  84.125
    56.8,-0.000701,-0.000610,-0.001223,-0.000943,  84.142
    57.0,-0.000610,-0.000529,-0.000986,-0.000891,  84.152
    57.2,-0.000521,-0.000466,-0.000746,-0.000778,  84.162
    57.4,-0.000442,-0.000410,-0.000511,-0.000687,  84.176
    57.6,-0.000372,-0.000368,-0.000293,-0.000606,  84.183
    57.8,-0.000345,-0.000307,-0.000089,-0.000516,  84.201
    58.0,-0.000348,-0.000248,0.000111,-0.000451,  84.205
    58.2,-0.000377,-0.000185,0.000183,-0.000373,  84.212
    58.4,-0.000420,-0.000221,0.000182,-0.000331,  84.219
    58.6,-0.000475,-0.000314,0.000107,-0.000279,  84.225
    58.8,-0.000548,-0.000459,0.000163,-0.000227,  84.227
    59.0,-0.000552,-0.000485,0.000246,-0.000289,  84.231
    59.2,-0.000521,-0.000462,0.000334,-0.000354,  84.240
    59.4,-0.000454,-0.000402,0.000473,-0.000448,  84.241
    59.6,-0.000400,-0.000367,0.000638,-0.000473,  84.231
    59.8,-0.000345,-0.000314,0.000829,-0.000461,  84.114
    60.0,-0.000285,-0.000253,0.001009,-0.000448,  84.011
    60.2,-0.000234,-0.000212,0.001194,-0.000422,  83.901
    60.4,-0.000192,-0.000164,0.001386,-0.000370,  83.907
    60.6,-0.000167,-0.000127,0.001542,-0.000318,  83.936
    60.8,-0.000138,-0.000100,0.001646,-0.000279,  83.980
    61.0,-0.000112,-0.000068,0.001746,-0.000227,  84.008
    61.2,-0.000094,-0.000046,0.001881,-0.000188,  84.035
    61.4,-0.000081,-0.000023,0.002000,-0.000149,  84.060
    61.6,-0.000052,-0.000001,0.002129,-0.000110,  84.080
    61.8,-0.000023,0.000021,0.002062,-0.000097,  84.148
    62.0,0.000015,-0.000141,0.001887,-0.000071,  84.160
    62.2,-0.000191,-0.000388,0.001630,-0.000045,  84.173
    62.4,-0.000511,-0.000728,0.001041,-0.000032,  84.184
    62.6,-0.000948,-0.000911,0.000209,0.000006,  84.182
    62.8,-0.001113,-0.001058,-0.000833,0.000032,  84.113
    63.0,-0.001202,-0.001170,-0.001102,0.000084,  84.003
    63.2,-0.001215,-0.001161,-0.001113,-0.000058,  83.861
    63.4,-0.001170,-0.001071,-0.000853,-0.000318,  83.821
    63.6,-0.001066,-0.000896,-0.000680,-0.000681,  83.830
    63.8,-0.000890,-0.000800,-0.000435,-0.000785,  83.870
    64.0,-0.000786,-0.000691,-0.000095,-0.000797,  83.908
    64.2,-0.000683,-0.000581,0.000115,-0.000772,  83.954
    64.4,-0.000586,-0.000495,0.000311,-0.000759,  83.989
    64.6,-0.000497,-0.000414,0.000487,-0.000707,  84.020
    64.8,-0.000419,-0.000344,0.000643,-0.000678,  84.044
    65.0,-0.000348,-0.000459,0.000500,-0.000551,  84.061
    65.2,-0.000490,-0.000661,0.000231,-0.000522,  84.078
    65.4,-0.000744,-0.000965,-0.000181,-0.000457,  84.141
    65.6,-0.001101,-0.001107,-0.000662,-0.000357,  84.154
    65.8,-0.001259,-0.001204,-0.001257,-0.000292,  84.174
    66.0,-0.001364,-0.001270,-0.001967,-0.000227,  84.178
    66.2,-0.001412,-0.001292,-0.002212,-0.000162,  84.185
    66.4,-0.001393,-0.001272,-0.002301,-0.000240,  84.090
    66.6,-0.001301,-0.001211,-0.002216,-0.000409,  83.967
    66.8,-0.001140,-0.001111,-0.002103,-0.000668,  83.886
    67.0,-0.001037,-0.001017,-0.001917,-0.000785,  83.892
    67.2,-0.000919,-0.000905,-0.001627,-0.000875,  83.940
    67.4,-0.000787,-0.000772,-0.001354,-0.000953,  83.971
    67.6,-0.000691,-0.000678,-0.001070,-0.000891,  84.013
    67.8,-0.000600,-0.000588,-0.000741,-0.000840,  84.043
    68.0,-0.000515,-0.000509,-0.000477,-0.000723,  84.056
    68.2,-0.000436,-0.000429,-0.000223,-0.000597,  84.076
    68.4,-0.000341,-0.000346,0.000006,-0.000532,  84.140
    68.6,-0.000252,-0.000266,-0.000122,-0.000490,  84.156
    68.8,-0.000399,-0.000402,-0.000454,-0.000412,  84.168
    69.0,-0.000672,-0.000647,-0.000976,-0.000360,  84.183
    69.2,-0.001055,-0.000993,-0.001246,-0.000308,  84.189
    69.4,-0.001165,-0.001088,-0.001489,-0.000360,  84.203
    69.6,-0.001187,-0.001106,-0.001703,-0.000464,  84.206
    69.8,-0.001142,-0.001051,-0.001713,-0.000645,  84.217
    70.0,-0.001004,-0.000988,-0.001592,-0.000810,  84.217
    70.2,-0.000937,-0.000884,-0.001373,-0.000927,  84.218
    70.4,-0.000841,-0.000741,-0.001147,-0.001069,  84.209
    70.6,-0.000716,-0.000650,-0.000853,-0.001092,  84.193
    70.8,-0.000636,-0.000565,-0.000514,-0.001015,  84.191
    71.0,-0.000558,-0.000481,-0.000246,-0.000836,  84.194
    71.2,-0.000480,-0.000413,0.000028,-0.000733,  84.203
    71.4,-0.000419,-0.000351,0.000287,-0.000642,  84.211
    71.6,-0.000352,-0.000290,0.000539,-0.000564,  84.217
    71.8,-0.000296,-0.000238,0.000797,-0.000486,  84.228
    72.0,-0.000247,-0.000189,0.001045,-0.000409,  84.236
    72.2,-0.000186,-0.000141,0.001242,-0.000370,  84.240
    72.4,-0.000138,-0.000105,0.001410,-0.000305,  84.245
    72.6,-0.000127,-0.000069,0.001533,-0.000253,  84.245
    72.8,-0.000123,-0.000035,0.001622,-0.000214,  84.165
    73.0,-0.000144,-0.000038,0.001684,-0.000162,  84.057
    73.2,-0.000145,-0.000050,0.001695,-0.000123,  83.912
    73.4,-0.000133,-0.000076,0.001679,-0.000120,  83.857
    73.6,-0.000124,-0.000067,0.001731,-0.000058,  83.851
    73.8,-0.000112,-0.000046,0.001784,-0.000094,  83.886
    74.0,-0.000083,-0.000012,0.001848,-0.000120,  83.922
    74.2,-0.000048,0.000003,0.001946,-0.000123,  83.964
    74.4,-0.000031,0.000021,0.002065,-0.000123,  84.001
    74.6,-0.000007,0.000042,0.002195,-0.000110,  84.030
    74.8,0.000017,-0.000015,0.002288,-0.000084,  84.061
    75.0,-0.000170,-0.000115,0.002367,-0.000058,  84.128
    75.2,-0.000450,-0.000244,0.002431,-0.000032,  84.148
    75.4,-0.000829,-0.000414,0.001903,-0.000019,  84.159
    75.6,-0.001040,-0.000603,0.001085,0.000006,  84.174
    75.8,-0.001205,-0.000821,-0.000018,0.000032,  84.189
    76.0,-0.001324,-0.001066,-0.000639,0.000045,  84.194
    76.2,-0.001369,-0.001173,-0.001160,-0.000097,  84.168
    76.4,-0.001346,-0.001211,-0.001585,-0.000318,  84.022
    76.6,-0.001259,-0.001193,-0.001698,-0.000655,  83.872
    76.8,-0.001177,-0.001141,-0.001616,-0.000810,  83.825
    77.0,-0.001050,-0.001028,-0.001337,-0.000927,  83.829
    77.2,-0.000896,-0.000869,-0.001464,-0.001031,  83.857
    77.4,-0.000795,-0.000772,-0.001691,-0.001031,  83.909
    77.6,-0.000689,-0.000674,-0.002016,-0.000966,  83.958
    77.8,-0.000597,-0.000579,-0.001784,-0.000862,  84.008
    78.0,-0.000501,-0.000500,-0.001325,-0.000785,  84.027
    78.2,-0.000390,-0.000421,-0.000623,-0.000694,  84.051
    78.4,-0.000291,-0.000344,-0.000555,-0.000603,  84.071
    78.6,-0.000350,-0.000476,-0.000692,-0.000512,  84.139
    78.8,-0.000508,-0.000708,-0.001030,-0.000448,  84.158
    79.0,-0.000725,-0.001043,-0.001414,-0.000396,  84.163
    79.2,-0.001040,-0.001185,-0.001920,-0.000383,  84.180
    79.4,-0.001163,-0.001276,-0.002553,-0.000422,  84.190
    79.6,-0.001266,-0.001316,-0.002703,-0.000512,  84.195
    79.8,-0.001341,-0.001284,-0.002699,-0.000590,  84.208
    80.0,-0.001308,-0.001199,-0.002530,-0.000694,  84.213
    80.2,-0.001203,-0.001041,-0.002354,-0.000823,  84.217
    80.4,-0.001031,-0.000940,-0.002086,-0.000875,  84.229
    80.6,-0.000930,-0.000828,-0.001756,-0.000914,  84.237
    80.8,-0.000822,-0.000710,-0.001448,-0.000927,  84.240
    81.0,-0.000709,-0.000618,-0.001104,-0.000875,  84.246
    81.2,-0.000623,-0.000534,-0.000739,-0.000785,  84.251
    81.4,-0.000542,-0.000456,-0.000431,-0.000681,  84.256
    81.6,-0.000468,-0.000388,-0.000126,-0.000616,  84.264
    81.8,-0.000403,-0.000329,0.000169,-0.000538,  84.271
    82.0,-0.000340,-0.000270,0.000370,-0.000473,  84.273
    82.2,-0.000285,-0.000217,0.000532,-0.000422,  84.277
    82.4,-0.000234,-0.000165,0.000637,-0.000370,  84.281
    82.6,-0.000173,-0.000116,0.000706,-0.000367,  84.285
    82.8,-0.000125,-0.000074,0.000898,-0.000292,  84.288
    83.0,-0.000092,-0.000046,0.001131,-0.000289,  84.291
    83.2,-0.000057,-0.000020,0.001385,-0.000250,  84.285
    83.4,-0.000032,-0.000001,0.001357,-0.000162,  84.279
    83.6,-0.000018,0.000014,0.001183,-0.000110,  84.258
    83.8,-0.000002,0.000028,0.000892,-0.000071,  84.241
    84.0,0.000008,0.000035,0.000992,-0.000045,  84.237
    84.2,0.000012,0.000045,0.001207,-0.000006,  84.244
    84.4,0.000023,0.000051,0.001555,0.000019,  84.249
    84.6,0.000028,0.000055,0.001790,0.000019,  84.255
    84.8,0.000032,0.000067,0.002032,0.000068,  84.261
    85.0,0.000043,0.000075,0.002278,0.000081,  84.262
    85.2,0.000060,0.000085,0.002432,0.000068,  84.271
    85.4,0.000082,0.000104,0.002577,0.000117,  84.282
    85.6,0.000125,0.000131,0.002667,0.000117,  84.284
    85.8,0.000176,0.000167,0.002719,0.000094,  84.287
    86.0,0.000157,0.000151,0.002746,0.000107,  84.289
    86.2,0.000126,0.000120,0.002742,0.000120,  84.290
    86.4,0.000058,0.000071,0.002330,0.000133,  84.291
    86.6,0.000041,0.000061,0.001699,0.000159,  84.280
    86.8,0.000056,0.000064,0.000857,0.000172,  84.247
    87.0,0.000077,0.000087,0.000928,0.000172,  84.234
    87.2,0.000082,0.000090,0.001330,0.000172,  84.223
    87.4,0.000081,0.000101,0.002073,0.000159,  84.226
    87.6,0.000092,0.000111,0.002323,0.000107,  84.233
    87.8,0.000095,0.000119,0.002508,0.000107,  84.233
    88.0,0.000096,0.000126,0.002596,0.000107,  84.244
    88.2,0.000106,0.000134,0.002744,0.000120,  84.255
    88.4,0.000113,0.000148,0.002904,0.000133,  84.263
    88.6,0.000125,0.000162,0.003043,0.000120,  84.272
    88.8,0.000144,0.000184,0.003100,0.000120,  84.279
    89.0,0.000167,0.000134,0.003095,0.000133,  84.283
    89.2,0.000095,0.000048,0.003050,0.000133,  84.285
    89.4,-0.000006,-0.000069,0.002942,0.000133,  84.289
    89.6,-0.000152,-0.000110,0.002763,0.000159,  84.293
    89.8,-0.000192,-0.000124,0.002511,0.000172,  84.295
    90.0,-0.000180,-0.000115,0.002490,0.000185,  84.287
    90.2,-0.000136,-0.000105,0.002562,0.000146,  84.268
    90.4,-0.000121,-0.000083,0.002690,0.000068,  84.258
    90.6,-0.000086,-0.000040,0.002772,-0.000062,  84.251
    90.8,-0.000049,-0.000018,0.002869,-0.000088,  84.258
    91.0,-0.000030,0.000006,0.002977,-0.000088,  84.262
    91.2,-0.000006,0.000026,0.003095,-0.000062,  84.267
    91.4,0.000010,0.000041,0.003207,-0.000023,  84.278
    91.6,0.000024,0.000061,0.003325,-0.000010,  84.281
    91.8,0.000043,0.000081,0.003454,0.000003,  84.293
    92.0,0.000065,0.000100,0.003583,0.000029,  84.291
    92.2,0.000072,0.000123,0.003701,0.000042,  84.298
    92.4,0.000081,0.000154,0.003815,0.000068,  84.304
    92.6,0.000090,0.000131,0.003825,0.000081,  84.303
    92.8,0.000070,0.000091,0.003773,0.000107,  84.307
    93.0,0.000050,0.000036,0.003649,0.000133,  84.306
    93.2,0.000014,0.000022,0.003628,0.000133,  84.313
    93.4,0.000007,0.000027,0.003644,0.000133,  84.315
    93.6,0.000027,0.000041,0.003671,0.000107,  84.314
    93.8,0.000050,0.000070,0.003697,0.000055,  84.315
    94.0,0.000057,0.000078,0.003749,0.000042,  84.318
    94.2,0.000077,0.000094,0.003812,0.000042,  84.322
    94.4,0.000087,0.000103,0.003485,0.000065,  84.322
    94.6,0.000091,0.000110,0.002976,0.000029,  84.321
    94.8,0.000106,0.000120,0.002290,0.000055,  84.326
    95.0,0.000108,0.000126,0.002280,0.000081,  84.327
    95.2,0.000112,0.000134,0.002500,0.000107,  84.331
    95.4,0.000129,0.000142,0.002970,0.000120,  84.336
    95.6,0.000140,0.000156,0.003201,0.000107,  84.329
    95.8,0.000146,0.000161,0.003436,0.000120,  84.334
    96.0,0.000166,0.000175,0.003671,0.000133,  84.333
    96.2,0.000179,0.000190,0.003855,0.000133,  84.336
    96.4,0.000187,0.000193,0.004024,0.000159,  84.328
    96.6,0.000189,0.000205,0.004153,0.000159,  84.301
    96.8,0.000196,0.000209,0.004271,0.000159,  84.260
    97.0,0.000200,0.000209,0.004379,0.000172,  84.244
    97.2,0.000196,0.000213,0.004461,0.000185,  84.232
    97.4,0.000196,0.000212,0.004467,0.000185,  84.230
    97.6,0.000193,0.000207,0.004422,0.000185,  84.230
    97.8,0.000187,0.000207,0.004331,0.000198,  84.244
    98.0,0.000187,0.000205,0.004367,0.000198,  84.254
    98.2,0.000188,0.000207,0.004444,0.000198,  84.267
    98.4,0.000192,0.000212,0.004563,0.000211,  84.268
    98.6,0.000205,0.000226,0.004620,0.000198,  84.276
    98.8,0.000227,0.000188,0.004660,0.000198,  84.286
    99.0,0.000145,0.000132,0.004697,0.000211,  84.292
    99.2,0.000024,0.000057,0.004525,0.000198,  84.296
    99.4,-0.000135,-0.000033,0.004238,0.000211,  84.303
    99.6,-0.000217,-0.000130,0.003842,0.000237,  84.309
    99.8,-0.000277,-0.000247,0.003722,0.000263,  84.302
   100.0,-0.000305,-0.000264,0.003680,0.000172,  84.291
   100.2,-0.000301,-0.000239,0.003706,0.000029,  84.264
   100.4,-0.000264,-0.000162,0.003706,-0.000165,  84.236
   100.6,-0.000187,-0.000134,0.003716,-0.000230,  84.230
   100.8,-0.000154,-0.000098,0.003768,-0.000243,  84.233
   101.0,-0.000117,-0.000058,0.003821,-0.000243,  84.241
   101.2,-0.000077,-0.000033,0.003858,-0.000191,  84.252
   101.4,-0.000052,-0.000008,0.003885,-0.000165,  84.259
   101.6,-0.000020,0.000022,0.003907,-0.000114,  84.269
   101.8,0.000010,0.000049,0.004000,-0.000075,  84.279
   102.0,0.000032,0.000081,0.004114,-0.000049,  84.285
   102.2,0.000058,0.000119,0.004269,-0.000023,  84.294
   102.4,0.000091,0.000076,0.004196,0.000003,  84.301
   102.6,-0.000002,-0.000014,0.004030,0.000029,  84.299
   102.8,-0.000146,-0.000137,0.003761,0.000042,  84.309
   103.0,-0.000344,-0.000299,0.003635,0.000068,  84.307
   103.2,-0.000380,-0.000323,0.003531,0.000068,  84.306
   103.4,-0.000356,-0.000311,0.003446,0.000029,  84.318
   103.6,-0.000275,-0.000266,0.003444,-0.000023,  84.320
   103.8,-0.000242,-0.000235,0.003518,-0.000075,  84.322
   104.0,-0.000191,-0.000186,0.003627,-0.000165,  84.322
   104.2,-0.000141,-0.000129,0.003653,-0.000256,  84.329
   104.4,-0.000111,-0.000091,0.003681,-0.000256,  84.330
   104.6,-0.000076,-0.000056,0.003679,-0.000230,  84.328
   104.8,-0.000047,-0.000024,0.003773,-0.000165,  84.328
   105.0,-0.000024,0.000006,0.003902,-0.000127,  84.332
   105.2,0.000006,0.000026,0.004061,-0.000088,  84.333
   105.4,0.000027,0.000053,0.004171,-0.000062,  84.338
   105.6,0.000048,0.000076,0.004248,-0.000036,  84.335
   105.8,0.000060,0.000099,0.004332,0.000003,  84.342
   106.0,0.000086,0.000118,0.004380,0.000016,  84.344
   106.2,0.000099,0.000131,0.004375,0.000042,  84.349
   106.4,0.000108,0.000147,0.004363,0.000068,  84.343
   106.6,0.000119,0.000160,0.004262,0.000081,  84.340
   106.8,0.000133,0.000167,0.004094,0.000107,  84.311
   107.0,0.000134,0.000170,0.003870,0.000120,  84.287
   107.2,0.000140,0.000173,0.003880,0.000120,  84.262
   107.4,0.000146,0.000179,0.003984,0.000110,  84.261
   107.6,0.000142,0.000188,0.004178,0.000110,  84.256
   107.8,0.000151,0.000192,0.004266,0.000123,  84.267
   108.0,0.000158,0.000192,0.004343,0.000101,  84.277
   108.2,0.000159,0.000195,0.004406,0.000101,  84.284
   108.4,0.000168,0.000198,0.004519,0.000123,  84.292
   108.6,0.000173,0.000212,0.004663,0.000123,  84.292
   108.8,0.000188,0.000231,0.004807,0.000136,  84.303
   109.0,0.000218,0.000260,0.004750,0.000136,  84.305
   109.2,0.000250,0.000197,0.004601,0.000136,  84.310
   109.4,0.000175,0.000088,0.004349,0.000149,  84.315
   109.6,0.000063,-0.000064,0.004261,0.000127,  84.323
   109.8,-0.000102,-0.000098,0.004213,0.000162,  84.320
   110.0,-0.000140,-0.000102,0.004185,0.000127,  84.305
   110.2,-0.000132,-0.000072,0.004193,0.000127,  84.279
   110.4,-0.000082,-0.000055,0.004198,0.000149,  84.250
   110.6,-0.000068,-0.000033,0.004225,0.000146,  84.234
   110.8,-0.000041,0.000006,0.004256,0.000068,  84.234
   111.0,-0.000004,0.000026,0.004281,-0.000023,  84.239
   111.2,0.000014,0.000044,0.004329,0.000000,  84.249
   111.4,0.000035,0.000070,0.004362,0.000013,  84.266
   111.6,0.000059,0.000086,0.004408,0.000016,  84.266
   111.8,0.000077,0.000107,0.004471,0.000042,  84.275
   112.0,0.000100,0.000116,0.004540,0.000055,  84.291
   112.2,0.000133,0.000135,0.004529,0.000068,  84.292
   112.4,0.000014,0.000049,0.004504,0.000094,  84.299
   112.6,-0.000170,-0.000060,0.004453,0.000107,  84.299
   112.8,-0.000418,-0.000215,0.004248,0.000120,  84.308
   113.0,-0.000498,-0.000303,0.003976,0.000146,  84.310
   113.2,-0.000519,-0.000369,0.003625,0.000159,  84.315
   113.4,-0.000478,-0.000418,0.003142,0.000172,  84.312
   113.6,-0.000450,-0.000413,0.002544,0.000068,  84.296
   113.8,-0.000390,-0.000364,0.001837,-0.000101,  84.280
   114.0,-0.000302,-0.000272,0.001873,-0.000347,  84.276
   114.2,-0.000254,-0.000228,0.002215,-0.000386,  84.280
   114.4,-0.000201,-0.000181,0.002875,-0.000373,  84.285
   114.6,-0.000145,-0.000131,0.003157,-0.000295,  84.295
   114.8,-0.000108,-0.000096,0.003394,-0.000256,  84.302
   115.0,-0.000077,-0.000057,0.003590,-0.000191,  84.305
   115.2,-0.000056,-0.000025,0.003591,-0.000152,  84.309
   115.4,-0.000034,0.000006,0.003486,-0.000114,  84.316
   115.6,0.000003,0.000044,0.003253,-0.000062,  84.313
   115.8,0.000037,0.000076,0.003285,-0.000036,  84.321
   116.0,0.000076,0.000060,0.003392,-0.000010,  84.325
   116.2,0.000059,0.000024,0.003566,0.000016,  84.327
   116.4,0.000027,-0.000037,0.003659,0.000029,  84.331
   116.6,-0.000039,-0.000041,0.003751,0.000042,  84.333
   116.8,-0.000045,-0.000020,0.003823,0.000055,  84.335
   117.0,-0.000021,0.000021,0.003916,0.000055,  84.340
   117.2,0.000016,0.000034,0.004020,0.000055,  84.339
   117.4,0.000034,0.000054,0.004123,0.000055,  84.339
   117.6,0.000054,0.000077,0.004246,0.000016,  84.340
   117.8,0.000074,0.000090,0.004395,0.000029,  84.340
   118.0,0.000092,0.000103,0.004560,0.000042,  84.341
   118.2,0.000105,0.000116,0.004648,0.000055,  84.345
   118.4,0.000118,0.000128,0.004705,0.000068,  84.347
   118.6,0.000134,0.000144,0.004721,0.000094,  84.351
   118.8,0.000147,0.000157,0.004702,0.000107,  84.354
   119.0,0.000158,0.000166,0.004795,0.000107,  84.355
   119.2,0.000173,0.000182,0.004882,0.000120,  84.355
   119.4,0.000180,0.000196,0.004990,0.000133,  84.361
   119.6,0.000193,0.000205,0.005037,0.000146,  84.349
   119.8,0.000204,0.000222,0.005053,0.000159,  84.350
   120.0,0.000210,0.000232,0.005039,0.000172,  84.336
   120.2,0.000225,0.000238,0.005045,0.000172,  84.302
   120.4,0.000227,0.000241,0.005046,0.000198,  84.276
   120.6,0.000223,0.000243,0.005037,0.000211,  84.258
   120.8,0.000225,0.000241,0.005079,0.000211,  84.254
   121.0,0.000225,0.000240,0.005131,0.000224,  84.260
   121.2,0.000218,0.000245,0.005183,0.000211,  84.264
   121.4,0.000219,0.000241,0.005193,0.000211,  84.274
   121.6,0.000215,0.000238,0.005184,0.000224,  84.289
   121.8,0.000223,0.000242,0.005154,0.000224,  84.293
   122.0,0.000229,0.000243,0.005169,0.000224,  84.301
   122.2,0.000185,0.000239,0.005206,0.000237,  84.305
   122.4,0.000132,0.000240,0.005269,0.000237,  84.314
   122.6,0.000050,0.000234,0.005096,0.000224,  84.316
   122.8,-0.000045,0.000135,0.004804,0.000237,  84.317
   123.0,-0.000144,-0.000002,0.004397,0.000250,  84.319
   123.2,-0.000265,-0.000193,0.004266,0.000250,  84.325
   123.4,-0.000299,-0.000237,0.004207,0.000185,  84.316
   123.6,-0.000296,-0.000223,0.004211,0.000068,  84.283
   123.8,-0.000257,-0.000160,0.004230,-0.000101,  84.256
   124.0,-0.000183,-0.000139,0.004287,-0.000139,  84.246
   124.2,-0.000156,-0.000103,0.004386,-0.000178,  84.244
   124.4,-0.000119,-0.000061,0.004464,-0.000191,  84.250
   124.6,-0.000077,-0.000035,0.004537,-0.000165,  84.258
   124.8,-0.000052,-0.000007,0.004611,-0.000127,  84.272
   125.0,-0.000023,0.000022,0.004591,-0.000075,  84.280
   125.2,0.000004,0.000047,0.004541,-0.000049,  84.288
   125.4,0.000029,0.000075,0.004430,-0.000023,  84.300
   125.6,0.000061,0.000107,0.004418,0.000003,  84.303
   125.8,0.000101,0.000013,0.004447,0.000029,  84.314
   126.0,-0.000020,-0.000142,0.004500,0.000042,  84.315
   126.2,-0.000211,-0.000348,0.004367,0.000068,  84.316
   126.4,-0.000474,-0.000416,0.004173,0.000081,  84.325
   126.6,-0.000536,-0.000438,0.003917,0.000094,  84.324
   126.8,-0.000516,-0.000413,0.003855,0.000081,  84.328
   127.0,-0.000438,-0.000386,0.003850,0.000016,  84.333
   127.2,-0.000396,-0.000327,0.003908,-0.000062,  84.336
   127.4,-0.000328,-0.000249,0.003940,-0.000191,  84.337
   127.6,-0.000244,-0.000199,0.003996,-0.000347,  84.341
   127.8,-0.000192,-0.000156,0.004070,-0.000360,  84.344
   128.0,-0.000151,-0.000109,0.004158,-0.000334,  84.344
   128.2,-0.000110,-0.000070,0.004252,-0.000269,  84.348
   128.4,-0.000071,-0.000040,0.004325,-0.000217,  84.351
   128.6,-0.000034,-0.000008,0.004409,-0.000178,  84.354
   128.8,-0.000005,0.000018,0.004487,-0.000139,  84.349
   129.0,0.000026,0.000038,0.004587,-0.000101,  84.359
   129.2,0.000053,0.000066,0.004661,-0.000062,  84.361
   129.4,0.000071,0.000081,0.004698,-0.000036,  84.362
   129.6,0.000092,0.000095,0.004711,0.000003,  84.358
   129.8,0.000104,0.000109,0.004703,0.000029,  84.361
   130.0,0.000117,0.000120,0.004781,0.000042,  84.364
   130.2,0.000130,0.000130,0.004874,0.000068,  84.354
   130.4,0.000132,0.000135,0.004987,0.000094,  84.315
   130.6,0.000141,0.000143,0.005044,0.000107,  84.288
   130.8,0.000151,0.000146,0.005086,0.000120,  84.266
   131.0,0.000147,0.000159,0.005081,0.000133,  84.269
   131.2,0.000156,0.000163,0.005143,0.000133,  84.278
   131.4,0.000164,0.000162,0.005236,0.000159,  84.285
   131.6,0.000160,0.000171,0.005334,0.000159,  84.285
   131.8,0.000169,0.000177,0.005376,0.000159,  84.298
   132.0,0.000183,0.000182,0.005386,0.000172,  84.307
   132.2,0.000205,0.000197,0.005377,0.000185,  84.311
   132.4,0.000236,0.000215,0.005403,0.000172,  84.317
   132.6,0.000144,0.000154,0.005439,0.000172,  84.322
   132.8,0.000003,0.000059,0.005469,0.000185,  84.330
   133.0,-0.000192,-0.000071,0.005348,0.000221,  84.334
   133.2,-0.000254,-0.000132,0.005148,0.000198,  84.334
   133.4,-0.000287,-0.000175,0.004861,0.000211,  84.336
   133.6,-0.000271,-0.000199,0.004783,0.000273,  84.314
   133.8,-0.000219,-0.000192,0.004767,0.000159,  84.278
   134.0,-0.000194,-0.000156,0.004784,0.000029,  84.263
   134.2,-0.000152,-0.000097,0.004775,-0.000117,  84.257
   134.4,-0.000094,-0.000064,0.004765,-0.000178,  84.260
   134.6,-0.000058,-0.000029,0.004746,-0.000165,  84.264
   134.8,-0.000024,0.000002,0.004664,-0.000078,  84.275
   135.0,0.000005,0.000034,0.004542,-0.000075,  84.281
   135.2,0.000037,0.000059,0.004386,-0.000049,  84.292
   135.4,0.000059,0.000081,0.004378,0.000026,  84.298
   135.6,0.000083,0.000081,0.004400,0.000029,  84.304
   135.8,0.000033,0.000065,0.004474,0.000055,  84.314
   136.0,-0.000063,0.000036,0.004394,0.000104,  84.318
   136.2,-0.000190,-0.000059,0.004248,0.000094,  84.322
   136.4,-0.000274,-0.000193,0.004049,0.000120,  84.327
   136.6,-0.000355,-0.000364,0.003979,0.000169,  84.330
   136.8,-0.000430,-0.000387,0.003932,0.000117,  84.327
   137.0,-0.000422,-0.000356,0.003943,0.000039,  84.321
   137.2,-0.000372,-0.000269,0.003979,-0.000139,  84.304
   137.4,-0.000280,-0.000229,0.004041,-0.000259,  84.293
   137.6,-0.000231,-0.000186,0.004134,-0.000321,  84.294
   137.8,-0.000183,-0.000133,0.004258,-0.000347,  84.293
   138.0,-0.000136,-0.000098,0.004361,-0.000298,  84.306
   138.2,-0.000092,-0.000065,0.004475,-0.000295,  84.309
   138.4,-0.000055,-0.000028,0.004595,-0.000243,  84.316
   138.6,-0.000024,0.000006,0.004679,-0.000143,  84.321
   138.8,0.000013,0.000038,0.004748,-0.000127,  84.324
   139.0,0.000047,0.000071,0.004780,-0.000075,  84.330
   139.2,0.000079,0.000065,0.004746,-0.000026,  84.338
   139.4,0.000050,0.000040,0.004670,-0.000036,  84.336
   139.6,-0.000019,-0.000004,0.004544,0.000003,  84.343
   139.8,-0.000114,-0.000065,0.004123,0.000065,  84.348
   140.0,-0.000128,-0.000076,0.003524,0.000055,  84.349
   140.2,-0.000110,-0.000070,0.002751,0.000081,  84.353
   140.4,-0.000068,-0.000059,0.002760,0.000156,  84.352
   140.6,-0.000051,-0.000044,0.003087,0.000120,  84.349
   140.8,-0.000021,-0.000018,0.003707,0.000055,  84.352
   141.0,0.000008,0.000013,0.003897,0.000013,  84.353
   141.2,0.000023,0.000032,0.004032,-0.000023,  84.350
   141.4,0.000048,0.000049,0.004117,-0.000010,  84.359
   141.6,0.000066,0.000075,0.004276,0.000052,  84.405
   141.8,0.000075,0.000093,0.004456,0.000042,  84.411
   142.0,0.000097,0.000104,0.004650,0.000055,  84.413
   142.2,0.000113,0.000118,0.004773,0.000104,  84.418
   142.4,0.000126,0.000130,0.004861,0.000094,  84.419
   142.6,0.000139,0.000146,0.004919,0.000107,  84.418
   142.8,0.000147,0.000163,0.005023,0.000156,  84.420
   143.0,0.000158,0.000178,0.005110,0.000133,  84.423
   143.2,0.000171,0.000188,0.005204,0.000133,  84.420
   143.4,0.000181,0.000199,0.005277,0.000182,  84.414
   143.6,0.000189,0.000207,0.005308,0.000159,  84.392
   143.8,0.000194,0.000209,0.005319,0.000172,  84.343
   144.0,0.000210,0.000209,0.005350,0.000221,  84.278
   144.2,0.000215,0.000211,0.005382,0.000198,  84.271
   144.4,0.000218,0.000207,0.005409,0.000211,  84.270
   144.6,0.000207,0.000209,0.005449,0.000234,  84.274
   144.8,0.000204,0.000214,0.005496,0.000198,  84.282
   145.0,0.000202,0.000212,0.005543,0.000211,  84.293
   145.2,0.000205,0.000215,0.005579,0.000234,  84.300
   145.4,0.000210,0.000225,0.005621,0.000234,  84.304
   145.6,0.000206,0.000243,0.005625,0.000234,  84.317
   145.8,0.000215,0.000266,0.005652,0.000211,  84.325
   146.0,0.000215,0.000142,0.005562,0.000234,  84.328
   146.2,0.000083,-0.000050,0.005404,0.000211,  84.332
   146.4,-0.000102,-0.000300,0.005182,0.000211,  84.336
   146.6,-0.000356,-0.000365,0.005014,0.000247,  84.341
   146.8,-0.000418,-0.000375,0.004821,0.000172,  84.333
   147.0,-0.000396,-0.000318,0.004617,0.000107,  84.317
   147.2,-0.000312,-0.000303,0.004570,0.000016,  84.295
   147.4,-0.000281,-0.000271,0.004596,-0.000062,  84.275
   147.6,-0.000232,-0.000230,0.004680,-0.000165,  84.260
   147.8,-0.000171,-0.000173,0.004731,-0.000295,  84.262
   148.0,-0.000136,-0.000134,0.004826,-0.000295,  84.268
   148.2,-0.000096,-0.000094,0.004925,-0.000256,  84.280
   148.4,-0.000061,-0.000056,0.004798,-0.000191,  84.289
   148.6,-0.000031,-0.000030,0.004574,-0.000152,  84.303
   148.8,0.000003,0.000005,0.004259,-0.000101,  84.309
   149.0,0.000041,0.000037,0.004271,-0.000062,  84.310
   149.2,-0.000047,0.000001,0.004385,-0.000036,  84.318
   149.4,-0.000186,-0.000071,0.004611,0.000003,  84.323
   149.6,-0.000384,-0.000164,0.004505,0.000029,  84.336
   149.8,-0.000453,-0.000235,0.004284,0.000055,  84.340
   150.0,-0.000477,-0.000317,0.003944,0.000094,  84.340
   150.2,-0.000457,-0.000392,0.003880,0.000133,  84.346
   150.4,-0.000432,-0.000383,0.003899,0.000055,  84.349
   150.6,-0.000372,-0.000341,0.003977,-0.000101,  84.348
   150.8,-0.000279,-0.000247,0.004079,-0.000321,  84.352
   151.0,-0.000232,-0.000196,0.004234,-0.000360,  84.401
   151.2,-0.000190,-0.000152,0.004430,-0.000334,  84.406
   151.4,-0.000156,-0.000105,0.004539,-0.000269,  84.411
   151.6,-0.000123,-0.000066,0.004614,-0.000217,  84.412
   151.8,-0.000089,-0.000029,0.004653,-0.000178,  84.414
   152.0,-0.000052,0.000001,0.004732,-0.000139,  84.420
   152.2,-0.000018,0.000021,0.004795,-0.000101,  84.422
   152.4,0.000007,0.000049,0.004863,-0.000062,  84.420
   152.6,0.000042,0.000074,0.004937,-0.000036,  84.417
   152.8,0.000066,0.000093,0.005005,0.000003,  84.421
   153.0,0.000080,0.000113,0.005058,0.000029,  84.417
   153.2,0.000108,0.000137,0.005156,0.000042,  84.421
   153.4,0.000124,0.000154,0.005270,0.000068,  84.421
   153.6,0.000133,0.000157,0.005383,0.000094,  84.427
   153.8,0.000150,0.000160,0.005445,0.000107,  84.397
   154.0,0.000155,0.000165,0.005488,0.000133,  84.373
   154.2,0.000163,0.000171,0.005489,0.000146,  84.353
   154.4,0.000166,0.000178,0.005511,0.000159,  84.345
   154.6,0.000175,0.000184,0.005496,0.000172,  84.298
   154.8,0.000183,0.000186,0.005487,0.000185,  84.302
   155.0,0.000181,0.000195,0.005451,0.000185,  84.307
   155.2,0.000193,0.000205,0.005472,0.000185,  84.316
   155.4,0.000204,0.000211,0.005498,0.000185,  84.319
   155.6,0.000208,0.000221,0.005530,0.000198,  84.328
   155.8,0.000227,0.000211,0.005351,0.000198,  84.330
   156.0,0.000183,0.000199,0.005070,0.000198,  84.339
   156.2,0.000103,0.000181,0.004667,0.000211,  84.341
   156.4,0.000009,0.000143,0.004556,0.000198,  84.345
   156.6,-0.000040,0.000089,0.004553,0.000211,  84.397
   156.8,-0.000086,0.000035,0.004635,0.000237,  84.393
   157.0,-0.000111,-0.000042,0.004673,0.000250,  84.384
   157.2,-0.000106,-0.000049,0.004754,0.000198,  84.354
   157.4,-0.000077,-0.000033,0.004873,0.000094,  84.329
   157.6,-0.000024,0.000006,0.004930,-0.000049,  84.264
   157.8,0.000003,0.000028,0.004972,-0.000075,  84.265
   158.0,0.000026,0.000047,0.004984,-0.000075,  84.273
   158.2,0.000050,0.000067,0.005051,-0.000062,  84.280
   158.4,0.000074,0.000087,0.005140,-0.000049,  84.292
   158.6,0.000092,0.000104,0.005216,-0.000023,  84.296
   158.8,0.000110,0.000118,0.005233,0.000003,  84.309
   159.0,0.000100,0.000132,0.005225,0.000029,  84.315
   159.2,0.000068,0.000148,0.005176,0.000042,  84.320
   159.4,0.000021,0.000161,0.005023,0.000068,  84.326
   159.6,-0.000092,0.000036,0.004811,0.000094,  84.325
   159.8,-0.000252,-0.000144,0.004541,0.000120,  84.332
   160.0,-0.000451,-0.000394,0.004378,0.000133,  84.340
   160.2,-0.000501,-0.000445,0.004242,0.000068,  84.390
   160.4,-0.000498,-0.000426,0.004155,-0.000049,  84.390
   160.6,-0.000443,-0.000342,0.004181,-0.000204,  84.377
   160.8,-0.000336,-0.000299,0.004253,-0.000269,  84.364
   161.0,-0.000288,-0.000244,0.004404,-0.000334,  84.359
   161.2,-0.000236,-0.000176,0.004528,-0.000373,  84.360
   161.4,-0.000173,-0.000136,0.004657,-0.000347,  84.366
   161.6,-0.000126,-0.000096,0.004803,-0.000308,  84.372
   161.8,-0.000084,-0.000056,0.004343,-0.000230,  84.382
   162.0,-0.000047,-0.000028,0.003572,-0.000178,  84.381
   162.2,-0.000008,0.000007,0.002519,-0.000139,  84.388
   162.4,0.000026,0.000041,0.002586,-0.000101,  84.390
   162.6,0.000058,0.000046,0.003066,-0.000049,  84.392
   162.8,0.000047,0.000046,0.003972,-0.000023,  84.396
   163.0,0.000016,0.000037,0.004243,0.000003,  84.403
   163.2,-0.000039,0.000034,0.004406,0.000029,  84.400
   163.4,-0.000044,0.000021,0.004467,0.000068,  84.408
   163.6,-0.000034,0.000011,0.004420,0.000081,  84.411
   163.8,-0.000010,0.000027,0.004349,0.000107,  84.412
   164.0,0.000011,0.000045,0.004185,0.000094,  84.407
   164.2,0.000039,0.000075,0.003967,0.000055,  84.413
   164.4,0.000066,0.000098,0.004056,-0.000010,  84.418
   164.6,0.000087,0.000114,0.004246,0.000003,  84.419
   164.8,0.000099,0.000126,0.004555,0.000016,  84.421
   165.0,0.000114,0.000140,0.004741,0.000042,  84.422
   165.2,0.000130,0.000152,0.004879,0.000068,  84.420
   165.4,0.000137,0.000162,0.005023,0.000094,  84.425
   165.6,0.000154,0.000172,0.005183,0.000107,  84.425
   165.8,0.000169,0.000175,0.005332,0.000120,  84.426
   166.0,0.000176,0.000188,0.005476,0.000133,  84.430
   166.2,0.000193,0.000194,0.005544,0.000146,  84.434
   166.4,0.000206,0.000203,0.005577,0.000159,  84.430
   166.6,0.000213,0.000221,0.005552,0.000172,  84.433
   166.8,0.000230,0.000235,0.005573,0.000185,  84.428
   167.0,0.000238,0.000240,0.005590,0.000211,  84.415
   167.2,0.000234,0.000244,0.005616,0.000224,  84.379
   167.4,0.000240,0.000253,0.005689,0.000224,  84.351
   167.6,0.000243,0.000253,0.005776,0.000237,  84.330
   167.8,0.000239,0.000249,0.005879,0.000250,  84.282
   168.0,0.000243,0.000253,0.005895,0.000250,  84.285
   168.2,0.000236,0.000253,0.005865,0.000263,  84.292
   168.4,0.000239,0.000247,0.005800,0.000263,  84.293
   168.6,0.000239,0.000253,0.005831,0.000250,  84.308
   168.8,0.000241,0.000259,0.005882,0.000263,  84.316
   169.0,0.000257,0.000266,0.005949,0.000250,  84.324
   169.2,0.000267,0.000282,0.005911,0.000237,  84.332
   169.4,0.000292,0.000179,0.005832,0.000250,  84.385
   169.6,0.000158,0.000026,0.005696,0.000237,  84.389
   169.8,-0.000039,-0.000184,0.005486,0.000237,  84.393
   170.0,-0.000291,-0.000259,0.005219,0.000237,  84.400
   170.2,-0.000354,-0.000289,0.004890,0.000224,  84.399
   170.4,-0.000356,-0.000282,0.004837,0.000198,  84.387
   170.6,-0.000290,-0.000267,0.004888,0.000071,  84.357
   170.8,-0.000255,-0.000215,0.005032,-0.000058,  84.326
   171.0,-0.000211,-0.000144,0.005063,-0.000240,  84.264
   171.2,-0.000144,-0.000105,0.005060,-0.000315,  84.260
   171.4,-0.000102,-0.000063,0.005047,-0.000289,  84.269
   171.6,-0.000065,-0.000026,0.005059,-0.000188,  84.278
   171.8,-0.000031,0.000003,0.005075,-0.000175,  84.294
   172.0,0.000003,0.000035,0.005098,-0.000123,  84.302
   172.2,0.000034,0.000061,0.005120,-0.000159,  84.310
   172.4,0.000063,0.000053,0.005193,-0.000084,  84.318
   172.6,0.000005,0.000033,0.005261,-0.000094,  84.315
   172.8,-0.000103,-0.000002,0.005360,-0.000068,  84.322
   173.0,-0.000253,-0.000114,0.005176,-0.000006,  84.329
   173.2,-0.000352,-0.000270,0.004845,0.000055,  84.385
   173.4,-0.000456,-0.000463,0.004379,0.000081,  84.387
   173.6,-0.000549,-0.000511,0.004248,0.000107,  84.396
   173.8,-0.000544,-0.000516,0.004226,0.000052,  84.405
   174.0,-0.000493,-0.000457,0.004271,-0.000104,  84.405
   174.2,-0.000379,-0.000351,0.004317,-0.000386,  84.409
   174.4,-0.000318,-0.000309,0.004406,-0.000438,  84.408
   174.6,-0.000265,-0.000254,0.004526,-0.000451,  84.408
   174.8,-0.000200,-0.000191,0.004599,-0.000425,  84.410
   175.0,-0.000151,-0.000148,0.004674,-0.000386,  84.415
   175.2,-0.000112,-0.000105,0.004743,-0.000321,  84.417
   175.4,-0.000072,-0.000066,0.004802,-0.000243,  84.419
   175.6,-0.000035,-0.000031,0.004845,-0.000191,  84.422
   175.8,-0.000010,0.000004,0.004882,-0.000139,  84.422
   176.0,0.000025,0.000034,0.004771,-0.000101,  84.426
   176.2,0.000051,0.000061,0.004572,-0.000049,  84.423
   176.4,0.000075,0.000083,0.004313,-0.000023,  84.428
   176.6,0.000102,0.000101,0.004151,0.000003,  84.432
   176.8,0.000121,0.000120,0.003978,0.000042,  84.432
   177.0,0.000134,0.000136,0.003826,0.000055,  84.433
   177.2,0.000142,0.000148,0.003970,0.000068,  84.420
   177.4,0.000155,0.000157,0.004268,0.000094,  84.384
   177.6,0.000160,0.000164,0.004704,0.000120,  84.355
   177.8,0.000163,0.000167,0.004899,0.000133,  84.346
   178.0,0.000168,0.000171,0.005054,0.000159,  84.345
   178.2,0.000173,0.000180,0.005168,0.000159,  84.348
   178.4,0.000176,0.000185,0.005291,0.000159,  84.359
   178.6,0.000179,0.000191,0.005389,0.000172,  84.364
   178.8,0.000186,0.000194,0.005482,0.000185,  84.375
   179.0,0.000194,0.000202,0.005565,0.000172,  84.382
   179.2,0.000205,0.000215,0.005628,0.000172,  84.386
   179.4,0.000194,0.000232,0.005671,0.000185,  84.390
   179.6,0.000176,0.000258,0.005515,0.000185,  84.398
   179.8,0.000147,0.000177,0.005234,0.000185,  84.404
   180.0,0.000076,0.000051,0.004846,0.000198,  84.406
   180.2,-0.000033,-0.000120,0.004715,0.000234,  84.409
   180.4,-0.000161,-0.000160,0.004657,0.000146,  84.400
   180.6,-0.000177,-0.000148,0.004667,0.000068,  84.370
   180.8,-0.000160,-0.000086,0.004549,-0.000026,  84.332
   181.0,-0.000090,-0.000065,0.004400,-0.000078,  84.317
   181.2,-0.000061,-0.000033,0.004227,-0.000127,  84.263
   181.4,-0.000034,0.000005,0.004274,-0.000139,  84.264
   181.6,0.000007,0.000030,0.004418,-0.000139,  84.273
   181.8,0.000033,0.000055,0.004649,-0.000114,  84.289
   182.0,0.000053,0.000079,0.004968,-0.000088,  84.299
   182.2,0.000080,0.000103,0.005137,-0.000049,  84.310
   182.4,0.000101,0.000131,0.005282,-0.000010,  84.313
   182.6,0.000116,0.000158,0.005431,0.000016,  84.322
   182.8,0.000141,0.000039,0.005388,0.000042,  84.378
   183.0,0.000015,-0.000152,0.005224,0.000068,  84.383
   183.2,-0.000194,-0.000411,0.004952,0.000094,  84.393
   183.4,-0.000465,-0.000494,0.004804,0.000107,  84.393
   183.6,-0.000515,-0.000521,0.004662,0.000094,  84.398
   183.8,-0.000495,-0.000496,0.004514,0.000055,  84.398
   184.0,-0.000394,-0.000414,0.004481,-0.000010,  84.388
   184.2,-0.000347,-0.000374,0.004529,-0.000088,  84.368
   184.4,-0.000293,-0.000313,0.004619,-0.000204,  84.355
   184.6,-0.000219,-0.000239,0.004144,-0.000360,  84.359
   184.8,-0.000173,-0.000191,0.003415,-0.000360,  84.365
   185.0,-0.000128,-0.000145,0.002428,-0.000321,  84.369
   185.2,-0.000086,-0.000099,0.002471,-0.000243,  84.372
   185.4,-0.000051,-0.000063,0.002896,-0.000191,  84.375
   185.6,-0.000010,-0.000025,0.003705,-0.000152,  84.379
   185.8,0.000021,0.000008,0.003993,-0.000078,  84.388
   186.0,0.000021,0.000032,0.004225,-0.000062,  84.393
   186.2,0.000003,0.000052,0.004376,-0.000036,  84.394
   186.4,-0.000027,0.000069,0.004498,0.000026,  84.406
   186.6,-0.000051,0.000039,0.004566,0.000029,  84.409
   186.8,-0.000086,-0.000017,0.004594,0.000055,  84.413
   187.0,-0.000111,-0.000092,0.004614,0.000104,  84.420
   187.2,-0.000118,-0.000100,0.004619,0.000042,  84.419
   187.4,-0.000096,-0.000076,0.004601,-0.000010,  84.418
   187.6,-0.000080,-0.000030,0.004679,-0.000101,  84.421
   187.8,-0.000031,-0.000011,0.004782,-0.000114,  84.422
   188.0,-0.000011,0.000017,0.004901,-0.000114,  84.422
   188.2,0.000012,0.000041,0.005041,-0.000065,  84.425
   188.4,0.000036,0.000063,0.005191,-0.000062,  84.423
   188.6,0.000050,0.000077,0.005335,-0.000036,  84.434
   188.8,0.000069,0.000093,0.005525,-0.000010,  84.431
   189.0,0.000088,0.000104,0.005736,0.000029,  84.436
   189.2,0.000100,0.000125,0.005968,0.000055,  84.437
   189.4,0.000119,0.000145,0.006062,0.000068,  84.435
   189.6,0.000136,0.000158,0.006089,0.000094,  84.434
   189.8,0.000145,0.000175,0.006044,0.000107,  84.437
   190.0,0.000161,0.000193,0.006056,0.000120,  84.442
   190.2,0.000180,0.000203,0.006063,0.000133,  84.445
   190.4,0.000182,0.000209,0.006033,0.000146,  84.434
   190.6,0.000189,0.000219,0.006013,0.000159,  84.395
   190.8,0.000195,0.000221,0.005972,0.000159,  84.351
   191.0,0.000191,0.000219,0.005948,0.000172,  84.332
   191.2,0.000197,0.000221,0.005896,0.000172,  84.315
   191.4,0.000204,0.000219,0.005937,0.000185,  84.266
   191.6,0.000200,0.000220,0.006004,0.000198,  84.272
   191.8,0.000200,0.000219,0.006106,0.000198,  84.288
   192.0,0.000204,0.000221,0.006112,0.000211,  84.296
   192.2,0.000208,0.000228,0.006077,0.000224,  84.311
   192.4,0.000230,0.000234,0.005997,0.000211,  84.317
   192.6,0.000257,0.000243,0.006001,0.000211,  84.363
   192.8,0.000122,0.000157,0.006032,0.000224,  84.379
   193.0,-0.000068,0.000044,0.006083,0.000211,  84.384
   193.2,-0.000338,-0.000110,0.005456,0.000211,  84.390
   193.4,-0.000435,-0.000221,0.004489,0.000224,  84.393
   193.6,-0.000485,-0.000327,0.003201,0.000237,  84.402
   193.8,-0.000478,-0.000424,0.002867,0.000263,  84.395
   194.0,-0.000452,-0.000431,0.002830,0.000133,  84.378
   194.2,-0.000398,-0.000386,0.003102,-0.000062,  84.348
   194.4,-0.000300,-0.000289,0.003311,-0.000321,  84.312
   194.6,-0.000242,-0.000240,0.003622,-0.000386,  84.259
   194.8,-0.000191,-0.000188,0.004069,-0.000386,  84.261
   195.0,-0.000132,-0.000131,0.004336,-0.000321,  84.271
   195.2,-0.000090,-0.000090,0.004583,-0.000282,  84.284
   195.4,-0.000059,-0.000055,0.004801,-0.000230,  84.297
   195.6,-0.000039,-0.000021,0.004966,-0.000165,  84.302
   195.8,-0.000017,0.000012,0.005107,-0.000114,  84.314
   196.0,-0.000004,0.000042,0.005207,-0.000075,  84.367
   196.2,-0.000005,0.000076,0.005122,-0.000049,  84.373
   196.4,-0.000008,-0.000039,0.004922,-0.000010,  84.378
   196.6,-0.000122,-0.000224,0.004617,0.000016,  84.380
   196.8,-0.000286,-0.000483,0.004521,0.000042,  84.394
   197.0,-0.000511,-0.000528,0.004457,-0.000010,  84.397
   197.2,-0.000544,-0.000496,0.004435,-0.000088,  84.401
   197.4,-0.000504,-0.000404,0.004255,-0.000204,  84.403
   197.6,-0.000394,-0.000354,0.004026,-0.000282,  84.406
   197.8,-0.000346,-0.000294,0.003744,-0.000347,  84.410
   198.0,-0.000281,-0.000224,0.003772,-0.000399,  84.415
   198.2,-0.000212,-0.000171,0.003938,-0.000373,  84.419
   198.4,-0.000169,-0.000131,0.004217,-0.000321,  84.418
   198.6,-0.000118,-0.000091,0.004358,-0.000243,  84.420
   198.8,-0.000081,-0.000061,0.004472,-0.000191,  84.427
   199.0,-0.000051,-0.000025,0.004592,-0.000152,  84.430
   199.2,-0.000013,0.000009,0.004680,-0.000127,  84.426
   199.4,0.000019,0.000034,0.004835,-0.000114,  84.434
   199.6,0.000041,0.000061,0.005000,-0.000075,  84.430
   199.8,0.000074,0.000084,0.005186,-0.000036,  84.434
   200.0,0.000097,0.000103,0.005305,-0.000010,  84.438
   200.2,0.000109,0.000122,0.005378,0.000029,  84.435
   200.4,0.000129,0.000138,0.005437,0.000055,  84.437
   200.6,0.000134,0.000154,0.005515,0.000068,  84.436
   200.8,0.000145,0.000162,0.005582,0.000094,  84.410
   201.0,0.000152,0.000166,0.005650,0.000107,  84.384
   201.2,0.000167,0.000166,0.005661,0.000120,  84.357
   201.4,0.000168,0.000172,0.005662,0.000133,  84.357
   201.6,0.000171,0.000179,0.005633,0.000133,  84.358
   201.8,0.000173,0.000179,0.005679,0.000146,  84.368
   202.0,0.000175,0.000182,0.005741,0.000159,  84.371
   202.2,0.000187,0.000187,0.005819,0.000159,  84.379
   202.4,0.000192,0.000197,0.005650,0.000159,  84.388
   202.6,0.000204,0.000213,0.005364,0.000172,  84.396
   202.8,0.000234,0.000228,0.004960,0.000185,  84.402
   203.0,0.000260,0.000257,0.004912,0.000185,  84.404
   203.2,0.000183,0.000190,0.004976,0.000198,  84.411
   203.4,0.000074,0.000074,0.005158,0.000198,  84.413
   203.6,-0.000091,-0.000075,0.005155,0.000211,  84.408
   203.8,-0.000136,-0.000113,0.005101,0.000211,  84.404
   204.0,-0.000144,-0.000116,0.005023,0.000185,  84.387
   204.2,-0.000120,-0.000074,0.005054,0.000159,  84.344
   204.4,-0.000057,-0.000057,0.005115,0.000107,  84.309
   204.6,-0.000036,-0.000025,0.005214,0.000055,  84.287
   204.8,-0.000010,0.000013,0.005323,-0.000036,  84.239
   205.0,0.000019,0.000036,0.005441,-0.000049,  84.247
   205.2,0.000036,0.000063,0.005575,-0.000023,  84.257
   205.4,0.000063,0.000082,0.005617,0.000016,  84.273
   205.6,0.000084,0.000101,0.005608,0.000042,  84.293
   205.8,0.000104,0.000132,0.005570,0.000068,  84.301
   206.0,0.000134,0.000154,0.005549,0.000081,  84.308
   206.2,0.000158,0.000022,0.005500,0.000107,  84.367
   206.4,-0.000011,-0.000174,0.005455,0.000120,  84.373
   206.6,-0.000267,-0.000453,0.005234,0.000120,  84.378
   206.8,-0.000626,-0.000560,0.004928,0.000133,  84.384
   207.0,-0.000713,-0.000608,0.004519,0.000120,  84.392
   207.2,-0.000715,-0.000610,0.004387,0.000120,  84.394
   207.4,-0.000628,-0.000583,0.004341,-0.000010,  84.391
   207.6,-0.000582,-0.000509,0.004379,-0.000230,  84.373
   207.8,-0.000503,-0.000395,0.004400,-0.000493,  84.359
   208.0,-0.000398,-0.000328,0.004442,-0.000571,  84.356
   208.2,-0.000334,-0.000260,0.004536,-0.000606,  84.355
   208.4,-0.000265,-0.000199,0.004641,-0.000541,  84.363
   208.6,-0.000204,-0.000148,0.004771,-0.000425,  84.373
   208.8,-0.000156,-0.000097,0.004896,-0.000373,  84.378
   209.0,-0.000105,-0.000059,0.005046,-0.000308,  84.388
   209.2,-0.000063,-0.000024,0.005161,-0.000243,  84.392
   209.4,-0.000030,0.000009,0.005277,-0.000191,  84.397
   209.6,0.000008,0.000036,0.005350,-0.000139,  84.403
   209.8,0.000037,0.000061,0.005355,-0.000101,  84.408
   210.0,0.000012,0.000027,0.005322,-0.000049,  84.409
   210.2,-0.000031,-0.000028,0.005232,-0.000023,  84.413
   210.4,-0.000107,-0.000112,0.005201,0.000003,  84.417
   210.6,-0.000105,-0.000112,0.005165,0.000016,  84.415
   210.8,-0.000081,-0.000090,0.005136,-0.000010,  84.421
   211.0,-0.000030,-0.000043,0.005116,-0.000049,  84.425
   211.2,-0.000004,-0.000015,0.005108,-0.000049,  84.429
   211.4,0.000013,0.000012,0.005100,-0.000062,  84.426
   211.6,0.000043,0.000042,0.005142,-0.000075,  84.430
   211.8,0.000067,0.000064,0.005236,-0.000062,  84.431
   212.0,0.000079,0.000086,0.005361,-0.000036,  84.434
   212.2,0.000101,0.000103,0.005444,0.000003,  84.430
   212.4,0.000117,0.000118,0.005547,0.000029,  84.436
   212.6,0.000126,0.000133,0.005645,0.000042,  84.435
   212.8,0.000141,0.000151,0.005692,0.000068,  84.434
   213.0,0.000147,0.000162,0.005704,0.000094,  84.437
   213.2,0.000167,0.000177,0.005685,0.000107,  84.439
   213.4,0.000167,0.000194,0.005742,0.000120,  84.437
   213.6,0.000184,0.000210,0.005814,0.000146,  84.442
   213.8,0.000197,0.000217,0.005924,0.000146,  84.439
   214.0,0.000208,0.000228,0.006007,0.000159,  84.415
   214.2,0.000218,0.000236,0.006084,0.000172,  84.378
   214.4,0.000220,0.000235,0.006156,0.000198,  84.341
   214.6,0.000229,0.000238,0.006177,0.000198,  84.313
   214.8,0.000226,0.000236,0.006179,0.000211,  84.317
   215.0,0.000222,0.000236,0.006139,0.000224,  84.318
   215.2,0.000226,0.000238,0.006180,0.000224,  84.329
   215.4,0.000226,0.000242,0.006258,0.000237,  84.344
   215.6,0.000227,0.000238,0.006340,0.000237,  84.354
   215.8,0.000236,0.000244,0.006402,0.000224,  84.368
   216.0,0.000244,0.000218,0.006470,0.000237,  84.370
   216.2,0.000163,0.000172,0.006512,0.000237,  84.381
   216.4,0.000032,0.000120,0.006244,0.000224,  84.387
   216.6,-0.000137,-0.000010,0.005820,0.000237,  84.395
   216.8,-0.000254,-0.000183,0.005224,0.000237,  84.393
   217.0,-0.000362,-0.000399,0.005010,0.000263,  84.405
   217.2,-0.000463,-0.000434,0.004894,0.000263,  84.399
   217.4,-0.000472,-0.000403,0.004893,0.000133,  84.385
   217.6,-0.000417,-0.000306,0.004970,-0.000062,  84.346
   217.8,-0.000317,-0.000259,0.004980,-0.000308,  84.290
   218.0,-0.000266,-0.000213,0.005007,-0.000373,  84.225
   218.2,-0.000215,-0.000154,0.005061,-0.000399,  84.229
   218.4,-0.000153,-0.000111,0.005094,-0.000373,  84.240
   218.6,-0.000104,-0.000073,0.005126,-0.000347,  84.258
   218.8,-0.000068,-0.000033,0.005154,-0.000295,  84.273
   219.0,-0.000031,0.000000,0.005253,-0.000217,  84.282
   219.2,0.000005,0.000032,0.005393,-0.000165,  84.295
   219.4,0.000033,0.000053,0.005574,-0.000127,  84.301
   219.6,0.000059,0.000078,0.005448,-0.000088,  84.363
   219.8,-0.000111,-0.000086,0.005182,-0.000049,  84.366
   220.0,-0.000390,-0.000323,0.004776,-0.000023,  84.371
   220.2,-0.000761,-0.000644,0.004493,0.000003,  84.384
   220.4,-0.000829,-0.000730,0.004216,0.000003,  84.388
   220.6,-0.000804,-0.000737,0.003917,-0.000049,  84.392
   220.8,-0.000667,-0.000670,0.003435,-0.000127,  84.397
   221.0,-0.000599,-0.000619,0.002865,-0.000243,  84.407
   221.2,-0.000521,-0.000541,0.002201,-0.000399,  84.405
   221.4,-0.000415,-0.000427,0.002234,-0.000619,  84.409
   221.6,-0.000342,-0.000356,0.002563,-0.000632,  84.410
   221.8,-0.000283,-0.000292,0.003168,-0.000567,  84.418
   222.0,-0.000219,-0.000226,0.003298,-0.000451,  84.418
   222.2,-0.000169,-0.000173,0.003346,-0.000373,  84.425
   222.4,-0.000130,-0.000129,0.003277,-0.000321,  84.424
   222.6,-0.000096,-0.000085,0.003498,-0.000256,  84.432
   222.8,-0.000068,-0.000048,0.003817,-0.000191,  84.436
   223.0,-0.000031,-0.000015,0.004229,-0.000139,  84.438
   223.2,0.000003,0.000013,0.004477,-0.000101,  84.441
   223.4,0.000037,0.000040,0.004673,-0.000062,  84.438
   223.6,0.000066,0.000068,0.004829,-0.000036,  84.438
   223.8,0.000092,0.000090,0.004974,0.000000,  84.439
   224.0,0.000108,0.000103,0.005094,0.000003,  84.441
   224.2,0.000123,0.000122,0.005178,0.000042,  84.418
   224.4,0.000137,0.000134,0.004737,0.000055,  84.381
   224.6,0.000144,0.000141,0.004032,0.000081,  84.350
   224.8,0.000155,0.000153,0.003042,0.000107,  84.333
   225.0,0.000163,0.000167,0.003084,0.000120,  84.337
   225.2,0.000171,0.000171,0.003487,0.000133,  84.342
   225.4,0.000181,0.000183,0.004277,0.000133,  84.349
   225.6,0.000186,0.000190,0.004580,0.000146,  84.359
   225.8,0.000195,0.000196,0.004827,0.000159,  84.373
   226.0,0.000216,0.000215,0.004997,0.000172,  84.379
   226.2,0.000234,0.000230,0.005110,0.000172,  84.385
   226.4,0.000260,0.000137,0.005187,0.000172,  84.393
   226.6,0.000144,-0.000002,0.005170,0.000185,  84.398
   226.8,-0.000044,-0.000195,0.005108,0.000185,  84.403
   227.0,-0.000304,-0.000259,0.005026,0.000185,  84.407
   227.2,-0.000364,-0.000292,0.004898,0.000162,  84.410
   227.4,-0.000364,-0.000290,0.004732,0.000175,  84.400
   227.6,-0.000301,-0.000264,0.004720,0.000201,  84.366
   227.8,-0.000265,-0.000221,0.004735,0.000075,  84.313
   228.0,-0.000215,-0.000153,0.004798,-0.000081,  84.290
   228.2,-0.000149,-0.000116,0.004901,-0.000253,  84.240
   228.4,-0.000102,-0.000087,0.005051,-0.000279,  84.250
   228.6,-0.000063,-0.000055,0.005237,-0.000266,  84.262
   228.8,-0.000026,-0.000033,0.005285,-0.000214,  84.278
   229.0,0.000011,-0.000006,0.005298,-0.000175,  84.289
   229.2,0.000045,0.000029,0.005249,-0.000123,  84.302
   229.4,0.000085,0.000065,0.005281,-0.000097,  84.358
   229.6,-0.000051,-0.000005,0.005312,-0.000071,  84.364
   229.8,-0.000280,-0.000119,0.005342,-0.000032,  84.374
   230.0,-0.000587,-0.000277,0.005115,-0.000006,  84.381
   230.2,-0.000692,-0.000399,0.004746,0.000019,  84.384
   230.4,-0.000751,-0.000536,0.004245,0.000058,  84.394
   230.6,-0.000748,-0.000672,0.004112,0.000097,  84.394
   230.8,-0.000709,-0.000675,0.004080,-0.000032,  84.392
   231.0,-0.000634,-0.000608,0.004163,-0.000279,  84.379
   231.2,-0.000504,-0.000481,0.004169,-0.000616,  84.360
   231.4,-0.000439,-0.000418,0.004187,-0.000668,  84.350
   231.6,-0.000379,-0.000347,0.004222,-0.000655,  84.344
   231.8,-0.000329,-0.000280,0.004316,-0.000564,  84.352
   232.0,-0.000278,-0.000228,0.004457,-0.000512,  84.362
   232.2,-0.000223,-0.000172,0.004638,-0.000435,  84.371
   232.4,-0.000173,-0.000129,0.004728,-0.000370,  84.375
   232.6,-0.000123,-0.000084,0.004788,-0.000305,  84.384
   232.8,-0.000073,-0.000034,0.004826,-0.000253,  84.393
   233.0,-0.000024,0.000008,0.004877,-0.000201,  84.395
   233.2,0.000018,-0.000040,0.004927,-0.000149,  84.406
   233.4,-0.000034,-0.000134,0.004961,-0.000110,  84.406
   233.6,-0.000139,-0.000274,0.004923,-0.000084,  84.414
   233.8,-0.000296,-0.000296,0.004845,-0.000058,  84.416
   234.0,-0.000312,-0.000279,0.004722,-0.000045,  84.419
   234.2,-0.000280,-0.000223,0.004728,-0.000032,  84.424
   234.4,-0.000201,-0.000190,0.004771,-0.000023,  84.422
   234.6,-0.000161,-0.000150,0.004850,-0.000088,  84.429
   234.8,-0.000128,-0.000098,0.004934,-0.000178,  84.431
   235.0,-0.000084,-0.000060,0.005027,-0.000191,  84.428
   235.2,-0.000047,-0.000030,0.005131,-0.000178,  84.437
   235.4,-0.000016,-0.000003,0.005254,-0.000152,  84.439
   235.6,0.000011,0.000019,0.005333,-0.000101,  84.435
   235.8,0.000037,0.000044,0.005401,-0.000062,  84.439
   236.0,0.000057,0.000072,0.005454,-0.000036,  84.442
   236.2,0.000078,0.000093,0.005538,-0.000010,  84.439
   236.4,0.000096,0.000108,0.005610,0.000029,  84.439
   236.6,0.000111,0.000131,0.005694,0.000055,  84.438
   236.8,0.000130,0.000144,0.005757,0.000068,  84.443
   237.0,0.000146,0.000155,0.005794,0.000094,  84.441
   237.2,0.000155,0.000164,0.005827,0.000107,  84.444
   237.4,0.000172,0.000171,0.005849,0.000120,  84.436
   237.6,0.000183,0.000174,0.005855,0.000146,  84.405
   237.8,0.000187,0.000180,0.005852,0.000146,  84.358
   238.0,0.000196,0.000183,0.005920,0.000159,  84.338
   238.2,0.000201,0.000181,0.006007,0.000172,  84.330
   238.4,0.000206,0.000187,0.006120,0.000185,  84.332
   238.6,0.000213,0.000190,0.005776,0.000172,  84.338
   238.8,0.000218,0.000196,0.005202,0.000172,  84.352
   239.0,0.000217,0.000198,0.004414,0.000185,  84.361
   239.2,0.000219,0.000206,0.004411,0.000185,  84.368
   239.4,0.000214,0.000222,0.004673,0.000185,  84.378
   239.6,0.000200,0.000244,0.005203,0.000185,  84.385
   239.8,0.000188,0.000275,0.005221,0.000185,  84.394
   240.0,0.000046,0.000135,0.005096,0.000198,  84.395
   240.2,-0.000157,-0.000085,0.004841,0.000198,  84.404
   240.4,-0.000422,-0.000383,0.004774,0.000211,  84.408
   240.6,-0.000472,-0.000448,0.004734,0.000146,  84.412
   240.8,-0.000447,-0.000441,0.004726,0.000042,  84.394
   241.0,-0.000342,-0.000355,0.004792,-0.000088,  84.377
   241.2,-0.000308,-0.000316,0.004900,-0.000178,  84.333
   241.4,-0.000279,-0.000259,0.005052,-0.000282,  84.310
   241.6,-0.000231,-0.000189,0.005140,-0.000337,  84.305
   241.8,-0.000186,-0.000146,0.005235,-0.000360,  84.317
   242.0,-0.000144,-0.000098,0.005303,-0.000321,  84.329
   242.2,-0.000102,-0.000054,0.005351,-0.000208,  84.339
   242.4,-0.000063,-0.000018,0.005379,-0.000191,  84.353
   242.6,-0.000024,0.000013,0.005392,-0.000139,  84.368
   242.8,0.000016,0.000046,0.005388,-0.000101,  84.371
   243.0,0.000053,-0.000049,0.005352,-0.000049,  84.379
   243.2,-0.000089,-0.000204,0.005294,-0.000010,  84.385
   243.4,-0.000325,-0.000417,0.005099,0.000016,  84.393
   243.6,-0.000655,-0.000510,0.004840,0.000068,  84.397
   243.8,-0.000726,-0.000565,0.004492,0.000094,  84.403
   244.0,-0.000721,-0.000582,0.004407,0.000107,  84.410
   244.2,-0.000637,-0.000564,0.004438,-0.000010,  84.412
   244.4,-0.000579,-0.000498,0.004553,-0.000204,  84.416
   244.6,-0.000504,-0.000384,0.004580,-0.000503,  84.419
   244.8,-0.000402,-0.000322,0.004623,-0.000580,  84.423
   245.0,-0.000329,-0.000264,0.004656,-0.000580,  84.425
   245.2,-0.000263,-0.000196,0.004684,-0.000516,  84.430
   245.4,-0.000199,-0.000140,0.004804,-0.000399,  84.433
   245.6,-0.000144,-0.000097,0.004955,-0.000334,  84.435
   245.8,-0.000097,-0.000057,0.005137,-0.000282,  84.442
   246.0,-0.000060,-0.000015,0.005052,-0.000217,  84.435
   246.2,-0.000024,0.000019,0.004844,-0.000152,  84.441
   246.4,0.000011,0.000046,0.004508,-0.000101,  84.443
   246.6,0.000037,0.000074,0.004556,-0.000062,  84.445
   246.8,0.000063,0.000087,0.004737,-0.000023,  84.447
   247.0,0.000089,0.000103,0.005021,0.000016,  84.447
   247.2,0.000108,0.000114,0.005099,0.000029,  84.449
   247.4,0.000123,0.000130,0.005153,0.000055,  84.450
   247.6,0.000137,0.000143,0.005161,0.000068,  84.447
   247.8,0.000144,0.000159,0.005239,0.000094,  84.411
   248.0,0.000155,0.000162,0.005316,0.000120,  84.386
   248.2,0.000160,0.000173,0.005430,0.000133,  84.369
   248.4,0.000174,0.000178,0.005498,0.000146,  84.364
   248.6,0.000185,0.000181,0.005561,0.000159,  84.371
   248.8,0.000181,0.000186,0.005603,0.000172,  84.376
   249.0,0.000193,0.000191,0.005655,0.000172,  84.386
   249.2,0.000206,0.000197,0.005687,0.000185,  84.389
   249.4,0.000210,0.000206,0.005714,0.000198,  84.403
   249.6,0.000230,0.000219,0.005801,0.000185,  84.408
   249.8,0.000198,0.000204,0.005909,0.000198,  84.412
   250.0,0.000137,0.000178,0.006054,0.000198,  84.414
   250.2,0.000063,0.000149,0.006031,0.000211,  84.420
   250.4,-0.000033,0.000099,0.005940,0.000224,  84.423
   250.6,-0.000071,0.000042,0.005775,0.000237,  84.425
   250.8,-0.000085,-0.000026,0.005527,0.000263,  84.409
   251.0,-0.000093,-0.000037,0.005192,0.000198,  84.389
   251.2,-0.000077,-0.000019,0.004768,0.000107,  84.350
   251.4,-0.000043,0.000024,0.004774,-0.000036,  84.313
   251.6,0.000008,0.000044,0.004933,-0.000062,  84.302
   251.8,0.000037,0.000063,0.005252,-0.000049,  84.313
   252.0,0.000054,0.000088,0.005386,-0.000036,  84.328
   252.2,0.000068,0.000103,0.005510,-0.000023,  84.343
   252.4,0.000092,0.000118,0.005604,0.000003,  84.354
   252.6,0.000113,0.000137,0.005742,0.000029,  84.359
   252.8,0.000138,0.000120,0.005893,0.000042,  84.371
   253.0,0.000059,0.000093,0.006038,0.000068,  84.376
   253.2,-0.000076,0.000050,0.005895,0.000081,  84.390
   253.4,-0.000257,-0.000104,0.005606,0.000094,  84.393
   253.6,-0.000393,-0.000317,0.005183,0.000120,  84.401
   253.8,-0.000535,-0.000590,0.004613,0.000133,  84.405
   254.0,-0.000679,-0.000636,0.004461,0.000146,  84.407
   254.2,-0.000679,-0.000597,0.004392,0.000003,  84.411
   254.4,-0.000613,-0.000471,0.004406,-0.000204,  84.403
   254.6,-0.000482,-0.000412,0.004421,-0.000477,  84.382
   254.8,-0.000412,-0.000346,0.004484,-0.000541,  84.365
   255.0,-0.000341,-0.000271,0.004600,-0.000567,  84.357
   255.2,-0.000273,-0.000222,0.004669,-0.000541,  84.373
   255.4,-0.000215,-0.000176,0.004743,-0.000503,  84.378
   255.6,-0.000165,-0.000149,0.004818,-0.000438,  84.388
   255.8,-0.000121,-0.000121,0.004923,-0.000324,  84.395
   256.0,-0.000076,-0.000085,0.005038,-0.000295,  84.401
   256.2,-0.000034,-0.000043,0.005163,-0.000230,  84.404
   256.4,0.000008,-0.000000,0.005236,-0.000143,  84.410
   256.6,-0.000031,-0.000022,0.005269,-0.000127,  84.414
   256.8,-0.000119,-0.000068,0.005286,-0.000075,  84.411
   257.0,-0.000242,-0.000150,0.005250,-0.000049,  84.421
   257.2,-0.000248,-0.000163,0.005156,-0.000010,  84.421
   257.4,-0.000228,-0.000161,0.005036,0.000029,  84.424
   257.6,-0.000161,-0.000134,0.004657,0.000068,  84.426
   257.8,-0.000127,-0.000111,0.004130,0.000042,  84.433
   258.0,-0.000088,-0.000075,0.003446,-0.000023,  84.437
   258.2,-0.000039,-0.000034,0.003463,-0.000127,  84.435
   258.4,-0.000013,-0.000007,0.003745,-0.000127,  84.439
   258.6,0.000013,0.000023,0.004295,-0.000101,  84.436
   258.8,0.000029,0.000050,0.004573,-0.000049,  84.443
   259.0,0.000039,0.000071,0.004830,-0.000023,  84.442
   259.2,0.000060,0.000092,0.005097,0.000003,  84.444
   259.4,0.000081,0.000113,0.005293,0.000029,  84.448
   259.6,0.000102,0.000131,0.005437,0.000055,  84.450
   259.8,0.000121,0.000148,0.005557,0.000068,  84.452
   260.0,0.000139,0.000166,0.005661,0.000094,  84.452
   260.2,0.000161,0.000182,0.005745,0.000120,  84.455
   260.4,0.000184,0.000201,0.005793,0.000133,  84.453
   260.6,0.000197,0.000214,0.005835,0.000146,  84.452
   260.8,0.000208,0.000219,0.005857,0.000159,  84.444
   261.0,0.000219,0.000228,0.005848,0.000172,  84.415
   261.2,0.000227,0.000233,0.005905,0.000172,  84.370
   261.4,0.000226,0.000237,0.005977,0.000185,  84.337
   261.6,0.000224,0.000241,0.006044,0.000211,  84.324
   261.8,0.000227,0.000243,0.006101,0.000198,  84.329
   262.0,0.000233,0.000242,0.006147,0.000198,  84.341
   262.2,0.000236,0.000248,0.006173,0.000211,  84.350
   262.4,0.000239,0.000252,0.006209,0.000198,  84.361
   262.6,0.000241,0.000259,0.006262,0.000198,  84.372
   262.8,0.000257,0.000279,0.006282,0.000211,  84.381
   263.0,0.000275,0.000302,0.006319,0.000211,  84.388
   263.2,0.000296,0.000145,0.006140,0.000211,  84.399
   263.4,0.000134,-0.000089,0.005879,0.000224,  84.402
   263.6,-0.000121,-0.000411,0.005523,0.000224,  84.405
   263.8,-0.000469,-0.000515,0.005348,0.000237,  84.415
   264.0,-0.000540,-0.000552,0.005214,0.000211,  84.420
   264.2,-0.000517,-0.000527,0.005110,0.000133,  84.412
   264.4,-0.000407,-0.000430,0.005037,0.000042,  84.386
   264.6,-0.000359,-0.000389,0.004976,-0.000075,  84.337
   264.8,-0.000306,-0.000326,0.004959,-0.000204,  84.289
   265.0,-0.000235,-0.000252,0.004996,-0.000386,  84.285
   265.2,-0.000180,-0.000203,0.005059,-0.000412,  84.293
   265.4,-0.000139,-0.000148,0.005170,-0.000360,  84.312
   265.6,-0.000091,-0.000100,0.005254,-0.000269,  84.328
   265.8,-0.000046,-0.000062,0.005332,-0.000217,  84.342
   266.0,-0.000016,-0.000024,0.005411,-0.000178,  84.348
   266.2,0.000028,0.000011,0.005448,-0.000104,  84.361
   266.4,-0.000114,-0.000055,0.005454,-0.000088,  84.370
   266.6,-0.000354,-0.000169,0.005430,-0.000062,  84.375
   266.8,-0.000670,-0.000331,0.005120,0.000013,  84.387
   267.0,-0.000785,-0.000469,0.004674,0.000029,  84.393
   267.2,-0.000849,-0.000610,0.004071,0.000055,  84.396
   267.4,-0.000840,-0.000762,0.003892,0.000130,  84.402
   267.6,-0.000824,-0.000765,0.003855,-0.000062,  84.404
   267.8,-0.000785,-0.000690,0.003970,-0.000321,  84.411
   268.0,-0.000689,-0.000541,0.004048,-0.000684,  84.416
   268.2,-0.000566,-0.000470,0.004178,-0.000749,  84.420
   268.4,-0.000488,-0.000390,0.004361,-0.000723,  84.427
   268.6,-0.000406,-0.000308,0.004501,-0.000619,  84.426
   268.8,-0.000320,-0.000250,0.004637,-0.000541,  84.432
   269.0,-0.000254,-0.000194,0.004774,-0.000464,  84.434
   269.2,-0.000194,-0.000144,0.004863,-0.000373,  84.434
   269.4,-0.000147,-0.000098,0.004923,-0.000295,  84.433
   269.6,-0.000100,-0.000050,0.004967,-0.000243,  84.444
   269.8,-0.000058,-0.000011,0.004523,-0.000191,  84.444
   270.0,-0.000021,0.000022,0.003809,-0.000139,  84.444
   270.2,0.000013,0.000049,0.002847,-0.000088,  84.445
   270.4,0.000042,0.000072,0.002894,-0.000049,  84.450
   270.6,0.000066,0.000087,0.003320,-0.000010,  84.452
   270.8,0.000089,0.000112,0.004124,0.000016,  84.453
   271.0,0.000108,0.000129,0.004401,0.000042,  84.452
   271.2,0.000118,0.000138,0.004633,0.000068,  84.432
   271.4,0.000134,0.000152,0.004773,0.000081,  84.394
   271.6,0.000144,0.000155,0.004851,0.000107,  84.365
   271.8,0.000152,0.000160,0.005072,0.000107,  84.358
   272.0,0.000163,0.000176,0.005282,0.000133,  84.362
   272.2,0.000173,0.000184,0.005530,0.000146,  84.373
   272.4,0.000179,0.000191,0.005701,0.000159,  84.375
   272.6,0.000189,0.000201,0.005851,0.000172,  84.377
   272.8,0.000199,0.000210,0.005981,0.000185,  84.390
   273.0,0.000210,0.000216,0.006063,0.000172,  84.393
   273.2,0.000176,0.000223,0.006126,0.000172,  84.403
   273.4,0.000121,0.000231,0.006164,0.000198,  84.410
   273.6,0.000042,0.000238,0.006047,0.000198,  84.410
   273.8,-0.000029,0.000148,0.005846,0.000211,  84.421
   274.0,-0.000110,0.000023,0.005557,0.000224,  84.423
   274.2,-0.000195,-0.000137,0.005467,0.000237,  84.421
   274.4,-0.000203,-0.000169,0.005410,0.000172,  84.399
   274.6,-0.000178,-0.000148,0.005395,0.000029,  84.357
   274.8,-0.000106,-0.000079,0.005390,-0.000139,  84.306
   275.0,-0.000075,-0.000060,0.005402,-0.000178,  84.294
   275.2,-0.000050,-0.000023,0.005430,-0.000191,  84.296
   275.4,-0.000009,0.000005,0.005159,-0.000165,  84.314
   275.6,0.000020,0.000024,0.004766,-0.000139,  84.326
   275.8,0.000039,0.000054,0.004225,-0.000101,  84.342
   276.0,0.000069,0.000076,0.004277,-0.000062,  84.354
   276.2,0.000069,0.000095,0.004576,-0.000036,  84.365
   276.4,0.000045,0.000123,0.005100,0.000003,  84.373
   276.6,0.000022,0.000143,0.005038,0.000029,  84.387
   276.8,-0.000018,-0.000035,0.004814,0.000055,  84.394
   277.0,-0.000194,-0.000302,0.004412,0.000081,  84.403
   277.2,-0.000430,-0.000671,0.004238,0.000107,  84.408
   277.4,-0.000726,-0.000747,0.004065,0.000029,  84.413
   277.6,-0.000768,-0.000715,0.003925,-0.000127,  84.408
   277.8,-0.000716,-0.000584,0.003981,-0.000347,  84.400
   278.0,-0.000566,-0.000524,0.004135,-0.000438,  84.382
   278.2,-0.000498,-0.000446,0.004389,-0.000541,  84.360
   278.4,-0.000420,-0.000355,0.004474,-0.000606,  84.349
   278.6,-0.000336,-0.000288,0.004513,-0.000616,  84.351
   278.8,-0.000270,-0.000226,0.004492,-0.000538,  84.362
   279.0,-0.000219,-0.000173,0.004587,-0.000422,  84.370
   279.2,-0.000167,-0.000123,0.004713,-0.000392,  84.375
   279.4,-0.000114,-0.000075,0.004848,-0.000328,  84.387
   279.6,-0.000073,-0.000035,0.004983,-0.000240,  84.391
   279.8,-0.000025,-0.000044,0.005139,-0.000188,  84.398
   280.0,-0.000080,-0.000064,0.005278,-0.000149,  84.401
   280.2,-0.000194,-0.000113,0.005288,-0.000110,  84.411
   280.4,-0.000345,-0.000158,0.005218,-0.000084,  84.413
   280.6,-0.000379,-0.000212,0.005086,-0.000032,  84.416
   280.8,-0.000388,-0.000270,0.004875,-0.000055,  84.422
   281.0,-0.000347,-0.000260,0.004839,0.000019,  84.428
   281.2,-0.000308,-0.000223,0.004819,-0.000058,  84.430
   281.4,-0.000262,-0.000146,0.004816,-0.000201,  84.435
   281.6,-0.000185,-0.000111,0.004889,-0.000334,  84.431
   281.8,-0.000138,-0.000075,0.004999,-0.000311,  84.438
   282.0,-0.000096,-0.000038,0.005144,-0.000285,  84.442
   282.2,-0.000050,-0.000009,0.005258,-0.000243,  84.443
   282.4,-0.000016,0.000008,0.005383,-0.000191,  84.444
   282.6,0.000016,0.000027,0.005497,-0.000139,  84.446
   282.8,0.000044,0.000043,0.005556,-0.000101,  84.450
   283.0,0.000071,0.000069,0.005588,-0.000049,  84.447
   283.2,0.000092,0.000086,0.005585,-0.000023,  84.454
   283.4,0.000110,0.000109,0.005612,0.000026,  84.453
   283.6,0.000134,0.000126,0.005655,0.000029,  84.451
   283.8,0.000149,0.000146,0.005709,0.000055,  84.454
   284.0,0.000165,0.000169,0.005597,0.000068,  84.461
   284.2,0.000178,0.000174,0.005404,0.000094,  84.455
   284.4,0.000189,0.000190,0.005122,0.000120,  84.432
   284.6,0.000194,0.000201,0.004984,0.000133,  84.383
   284.8,0.000199,0.000201,0.004893,0.000159,  84.336
   285.0,0.000202,0.000205,0.004822,0.000172,  84.312
   285.2,0.000205,0.000204,0.004535,0.000185,  84.309
   285.4,0.000210,0.000203,0.004178,0.000198,  84.317
   285.6,0.000212,0.000210,0.003734,0.000211,  84.334
   285.8,0.000215,0.000210,0.003908,0.000198,  84.353
   286.0,0.000226,0.000218,0.004349,0.000198,  84.359
   286.2,0.000235,0.000227,0.005029,0.000211,  84.370
   286.4,0.000257,0.000246,0.005243,0.000198,  84.382
   286.6,0.000278,0.000109,0.005339,0.000211,  84.393
   286.8,0.000069,-0.000102,0.005305,0.000211,  84.398
   287.0,-0.000218,-0.000379,0.005103,0.000211,  84.406
   287.2,-0.000607,-0.000502,0.004756,0.000224,  84.411
   287.4,-0.000714,-0.000589,0.004259,0.000224,  84.415
   287.6,-0.000736,-0.000625,0.004128,0.000224,  84.411
   287.8,-0.000659,-0.000608,0.004096,0.000068,  84.390
   288.0,-0.000609,-0.000540,0.004181,-0.000165,  84.360
   288.2,-0.000535,-0.000414,0.004270,-0.000503,  84.317
   288.4,-0.000418,-0.000348,0.004415,-0.000554,  84.296
   288.6,-0.000345,-0.000284,0.004607,-0.000529,  84.305
   288.8,-0.000286,-0.000217,0.004788,-0.000425,  84.316
   289.0,-0.000219,-0.000167,0.004964,-0.000373,  84.329
   289.2,-0.000161,-0.000118,0.005150,-0.000308,  84.344
   289.4,-0.000118,-0.000077,0.005285,-0.000243,  84.352
   289.6,-0.000067,-0.000051,0.005399,-0.000191,  84.364
   289.8,-0.000106,-0.000029,0.005483,-0.000139,  84.378
   290.0,-0.000202,-0.000016,0.005546,-0.000114,  84.385
   290.2,-0.000326,-0.000162,0.005274,-0.000088,  84.390
   290.4,-0.000458,-0.000395,0.004844,-0.000049,  84.398
   290.6,-0.000621,-0.000708,0.004247,-0.000010,  84.400
   290.8,-0.000793,-0.000753,0.003853,0.000029,  84.410
   291.0,-0.000793,-0.000708,0.003489,-0.000088,  84.413
   291.2,-0.000729,-0.000564,0.003138,-0.000282,  84.417
   291.4,-0.000573,-0.000510,0.003129,-0.000554,  84.417
   291.6,-0.000497,-0.000457,0.003285,-0.000632,  84.427
   291.8,-0.000425,-0.000394,0.003610,-0.000658,  84.428
   292.0,-0.000340,-0.000336,0.003832,-0.000609,  84.430
   292.2,-0.000277,-0.000277,0.004089,-0.000593,  84.437
   292.4,-0.000225,-0.000220,0.004394,-0.000503,  84.437
   292.6,-0.000167,-0.000161,0.004191,-0.000363,  84.437
   292.8,-0.000119,-0.000112,0.003754,-0.000334,  84.441
   293.0,-0.000084,-0.000077,0.003099,-0.000269,  84.443
   293.2,-0.000046,-0.000037,0.003254,-0.000169,  84.444
   293.4,-0.000012,-0.000003,0.003674,-0.000152,  84.444
   293.6,0.000016,0.000024,0.004392,-0.000114,  84.453
   293.8,0.000049,0.000056,0.004697,-0.000039,  84.457
   294.0,0.000072,0.000077,0.004908,-0.000036,  84.452
   294.2,0.000087,0.000096,0.005064,0.000003,  84.461
   294.4,0.000106,0.000115,0.005240,0.000065,  84.461
   294.6,0.000117,0.000126,0.005386,0.000055,  84.450
   294.8,0.000121,0.000136,0.005500,0.000068,  84.410
   295.0,0.000126,0.000148,0.005593,0.000130,  84.388
   295.2,0.000135,0.000155,0.005667,0.000120,  84.374
   295.4,0.000137,0.000159,0.005715,0.000133,  84.370
   295.6,0.000153,0.000166,0.005736,0.000182,  84.375
   295.8,0.000161,0.000172,0.005747,0.000159,  84.388
   296.0,0.000169,0.000179,0.005744,0.000172,  84.394
   296.2,0.000173,0.000193,0.005807,0.000208,  84.398
   296.4,0.000188,0.000206,0.005869,0.000185,  84.411
   296.6,0.000206,0.000220,0.005968,0.000198,  84.413
   296.8,0.000226,0.000247,0.005961,0.000221,  84.416
   297.0,0.000255,0.000170,0.005901,0.000185,  84.424
   297.2,0.000186,0.000046,0.005794,0.000198,  84.429
   297.4,0.000068,-0.000123,0.005710,0.000234,  84.428
   297.6,-0.000097,-0.000160,0.005606,0.000172,  84.432
   297.8,-0.000126,-0.000149,0.005487,0.000146,  84.411
   298.0,-0.000113,-0.000085,0.005493,0.000117,  84.383
   298.2,-0.000058,-0.000062,0.005524,0.000078,  84.336
   298.4,-0.000034,-0.000034,0.005613,0.000052,  84.302
   298.6,-0.000008,0.000006,0.005670,-0.000023,  84.298
   298.8,0.000021,0.000031,0.005744,-0.000026,  84.311
   299.0,0.000045,0.000061,0.005800,-0.000049,  84.322
   299.2,0.000066,0.000082,0.005878,-0.000036,  84.339
   299.4,0.000091,0.000105,0.005920,0.000003,  84.352
   299.6,0.000114,0.000134,0.005942,0.000029,  84.368
   299.8,0.000131,0.000162,0.005943,0.000055,  84.376
   300.0,0.000159,0.000050,0.005786,0.000081,  84.383
   300.2,-0.000056,-0.000135,0.005517,0.000107,  84.392
   300.4,-0.000393,-0.000389,0.005165,0.000133,  84.397
   300.6,-0.000837,-0.000711,0.004836,0.000133,  84.405
   300.8,-0.000926,-0.000784,0.004460,0.000071,  84.410
   301.0,-0.000904,-0.000799,0.004042,0.000019,  84.418
   301.2,-0.000748,-0.000753,0.003953,-0.000071,  84.417
   301.4,-0.000675,-0.000703,0.004010,-0.000250,  84.406
   301.6,-0.000590,-0.000614,0.004207,-0.000444,  84.378
   301.8,-0.000473,-0.000489,0.004281,-0.000681,  84.359
   302.0,-0.000392,-0.000411,0.004360,-0.000707,  84.361
   302.2,-0.000328,-0.000338,0.004456,-0.000642,  84.372
   302.4,-0.000256,-0.000267,0.004572,-0.000512,  84.379
   302.6,-0.000195,-0.000209,0.004697,-0.000448,  84.384
   302.8,-0.000152,-0.000158,0.004838,-0.000370,  84.393
   303.0,-0.000101,-0.000113,0.004979,-0.000305,  84.397
   303.2,-0.000083,-0.000070,0.005115,-0.000240,  84.407
   303.4,-0.000089,-0.000022,0.005246,-0.000188,  84.410
   303.6,-0.000101,0.000026,0.005198,-0.000149,  84.416
   303.8,-0.000119,-0.000018,0.005072,-0.000097,  84.423
   304.0,-0.000157,-0.000102,0.004841,-0.000058,  84.423
   304.2,-0.000197,-0.000228,0.004789,-0.000019,  84.433
   304.4,-0.000243,-0.000235,0.004774,-0.000045,  84.431
   304.6,-0.000231,-0.000201,0.004823,-0.000123,  84.434
   304.8,-0.000188,-0.000129,0.004875,-0.000253,  84.439
   305.0,-0.000130,-0.000098,0.004938,-0.000253,  84.434
   305.2,-0.000093,-0.000062,0.005022,-0.000253,  84.445
   305.4,-0.000059,-0.000023,0.005126,-0.000227,  84.443
   305.6,-0.000018,0.000002,0.005250,-0.000152,  84.444
   305.8,0.000013,0.000029,0.005402,-0.000114,  84.446
   306.0,0.000037,0.000055,0.005537,-0.000075,  84.450
   306.2,0.000058,0.000074,0.005666,-0.000013,  84.453
   306.4,0.000081,0.000094,0.005802,0.000026,  84.454
   306.6,0.000102,0.000111,0.005896,0.000029,  84.450
   306.8,0.000121,0.000127,0.005959,0.000055,  84.463
   307.0,0.000145,0.000145,0.005976,0.000068,  84.458
   307.2,0.000166,0.000165,0.006034,0.000094,  84.458
   307.4,0.000179,0.000174,0.006060,0.000107,  84.457
   307.6,0.000199,0.000183,0.006108,0.000133,  84.465
   307.8,0.000212,0.000196,0.006118,0.000133,  84.444
   308.0,0.000216,0.000201,0.006180,0.000133,  84.410
   308.2,0.000218,0.000207,0.006258,0.000146,  84.369
   308.4,0.000220,0.000211,0.006358,0.000159,  84.340
   308.6,0.000223,0.000212,0.006389,0.000185,  84.329
   308.8,0.000222,0.000216,0.006374,0.000211,  84.338
   309.0,0.000215,0.000218,0.006328,0.000211,  84.345
   309.2,0.000219,0.000222,0.006360,0.000211,  84.360
   309.4,0.000227,0.000226,0.006413,0.000224,  84.370
   309.6,0.000231,0.000235,0.006464,0.000224,  84.380
   309.8,0.000251,0.000194,0.006500,0.000224,  84.395
   310.0,0.000111,0.000122,0.006542,0.000237,  84.399
   310.2,-0.000107,0.000031,0.006574,0.000237,  84.403
   310.4,-0.000387,-0.000083,0.006294,0.000224,  84.407
   310.6,-0.000502,-0.000210,0.005832,0.000250,  84.418
   310.8,-0.000579,-0.000354,0.005219,0.000276,  84.419
   311.0,-0.000596,-0.000517,0.005000,0.000289,  84.422
   311.2,-0.000573,-0.000535,0.004865,0.000146,  84.410
   311.4,-0.000509,-0.000482,0.004846,-0.000088,  84.381
   311.6,-0.000389,-0.000367,0.004873,-0.000425,  84.331
   311.8,-0.000324,-0.000315,0.004956,-0.000503,  84.294
   312.0,-0.000267,-0.000253,0.005117,-0.000503,  84.290
   312.2,-0.000198,-0.000187,0.005201,-0.000425,  84.306
   312.4,-0.000146,-0.000141,0.005296,-0.000386,  84.318
   312.6,-0.000098,-0.000096,0.005386,-0.000321,  84.333
   312.8,-0.000053,-0.000054,0.005465,-0.000230,  84.350
   313.0,-0.000029,-0.000014,0.005534,-0.000178,  84.359
   313.2,-0.000022,0.000027,0.005602,-0.000139,  84.372
   313.4,-0.000018,0.000069,0.005388,-0.000088,  84.377
   313.6,-0.000032,-0.000125,0.005010,-0.000049,  84.385
   313.8,-0.000234,-0.000420,0.004481,-0.000010,  84.395
   314.0,-0.000522,-0.000834,0.004198,0.000029,  84.396
   314.2,-0.000894,-0.000919,0.003953,-0.000036,  84.407
   314.4,-0.000949,-0.000887,0.003745,-0.000165,  84.410
   314.6,-0.000888,-0.000749,0.003738,-0.000347,  84.416
   314.8,-0.000718,-0.000679,0.003873,-0.000451,  84.421
   315.0,-0.000637,-0.000582,0.004127,-0.000593,  84.421
   315.2,-0.000545,-0.000470,0.004232,-0.000723,  84.425
   315.4,-0.000443,-0.000394,0.004327,-0.000710,  84.428
   315.6,-0.000365,-0.000319,0.004413,-0.000632,  84.435
   315.8,-0.000296,-0.000255,0.004554,-0.000503,  84.437
   316.0,-0.000236,-0.000197,0.004720,-0.000425,  84.443
   316.2,-0.000178,-0.000144,0.004908,-0.000334,  84.443
   316.4,-0.000129,-0.000095,0.005038,-0.000269,  84.447
   316.6,-0.000084,-0.000053,0.005133,-0.000204,  84.448
   316.8,-0.000044,-0.000018,0.005218,-0.000165,  84.451
   317.0,-0.000004,0.000020,0.005317,-0.000127,  84.451
   317.2,0.000029,0.000048,0.005431,-0.000114,  84.458
   317.4,0.000056,0.000067,0.005540,-0.000075,  84.454
   317.6,0.000078,0.000090,0.005655,-0.000036,  84.456
   317.8,0.000085,0.000108,0.005718,0.000003,  84.460
   318.0,0.000100,0.000120,0.005776,0.000055,  84.458
   318.2,0.000115,0.000137,0.005825,0.000068,  84.445
   318.4,0.000123,0.000149,0.005867,0.000094,  84.408
   318.6,0.000130,0.000154,0.005900,0.000120,  84.388
   318.8,0.000134,0.000165,0.005933,0.000133,  84.385
   319.0,0.000148,0.000171,0.005985,0.000146,  84.391
   319.2,0.000159,0.000176,0.006027,0.000159,  84.397
   319.4,0.000163,0.000182,0.006080,0.000172,  84.410
   319.6,0.000171,0.000186,0.006235,0.000172,  84.410
   319.8,0.000192,0.000197,0.006425,0.000185,  84.420
   320.0,0.000210,0.000210,0.006667,0.000198,  84.417
   320.2,0.000234,0.000223,0.006220,0.000208,  84.431
   320.4,0.000179,0.000179,0.005428,0.000172,  84.430
   320.6,0.000081,0.000108,0.004327,0.000198,  84.436
   320.8,-0.000055,0.000012,0.004183,0.000234,  84.442
   321.0,-0.000081,-0.000017,0.004350,0.000211,  84.443
   321.2,-0.000071,-0.000029,0.004823,0.000273,  84.439
   321.4,-0.000022,-0.000014,0.005011,0.000334,  84.421
   321.6,-0.000004,-0.000004,0.005222,0.000247,  84.394
   321.8,0.000013,0.000018,0.005428,0.000169,  84.361
   322.0,0.000046,0.000056,0.005526,0.000065,  84.355
   322.2,0.000067,0.000075,0.005584,0.000016,  84.355
   322.4,0.000079,0.000093,0.005587,0.000029,  84.367
   322.6,0.000095,0.000113,0.005701,0.000091,  84.373
   322.8,0.000113,0.000132,0.005819,0.000081,  84.384
   323.0,0.000120,0.000146,0.005989,0.000107,  84.391
   323.2,0.000142,0.000163,0.006097,0.000143,  84.401
   323.4,0.000152,0.000114,0.006164,0.000120,  84.409
   323.6,0.000039,0.000034,0.006226,0.000133,  84.415
   323.8,-0.000128,-0.000078,0.006052,0.000182,  84.418
   324.0,-0.000346,-0.000159,0.005742,0.000172,  84.424
   324.2,-0.000417,-0.000242,0.005303,0.000185,  84.425
   324.4,-0.000440,-0.000321,0.005208,0.000247,  84.432
   324.6,-0.000408,-0.000317,0.005203,0.000120,  84.434
   324.8,-0.000374,-0.000278,0.005297,-0.000062,  84.428
   325.0,-0.000320,-0.000191,0.005380,-0.000272,  84.412
   325.2,-0.000227,-0.000144,0.005488,-0.000347,  84.391
   325.4,-0.000174,-0.000108,0.005628,-0.000334,  84.389
   325.6,-0.000134,-0.000059,0.005701,-0.000221,  84.389
   325.8,-0.000083,-0.000024,0.005724,-0.000182,  84.402
   326.0,-0.000038,0.000011,0.005720,-0.000156,  84.400
   326.2,-0.000010,0.000041,0.005783,-0.000152,  84.410
   326.4,0.000028,0.000069,0.005872,-0.000078,  84.422
   326.6,0.000064,0.000106,0.005950,-0.000075,  84.422
   326.8,0.000092,0.000135,0.006054,-0.000036,  84.431
   327.0,0.000132,0.000093,0.006059,0.000039,  84.432
   327.2,0.000096,0.000023,0.006027,0.000055,  84.434
   327.4,0.000013,-0.000085,0.005959,0.000068,  84.440
   327.6,-0.000091,-0.000100,0.005902,0.000130,  84.443
   327.8,-0.000098,-0.000080,0.005824,0.000120,  84.441
   328.0,-0.000084,-0.000035,0.005747,0.000133,  84.451
   328.2,-0.000028,-0.000016,0.005717,0.000146,  84.448
   328.4,-0.000004,-0.000003,0.005686,0.000120,  84.451
   328.6,0.000016,0.000017,0.005695,0.000081,  84.454
   328.8,0.000046,0.000037,0.005758,0.000016,  84.458
   329.0,0.000067,0.000057,0.005830,0.000029,  84.459
   329.2,0.000079,0.000077,0.005939,0.000042,  84.460
   329.4,0.000101,0.000096,0.005554,0.000068,  84.463
   329.6,0.000119,0.000109,0.004913,0.000094,  84.463
   329.8,0.000129,0.000127,0.004038,0.000107,  84.464
   330.0,0.000151,0.000143,0.004008,0.000120,  84.465
   330.2,0.000167,0.000150,0.004296,0.000146,  84.468
   330.4,0.000171,0.000164,0.004883,0.000146,  84.467
   330.6,0.000188,0.000179,0.004986,0.000159,  84.469
   330.8,0.000198,0.000188,0.005003,0.000172,  84.477
   331.0,0.000199,0.000200,0.004926,0.000198,  84.475
   331.2,0.000211,0.000214,0.005096,0.000198,  84.471
   331.4,0.000216,0.000213,0.005327,0.000211,  84.446
   331.6,0.000210,0.000218,0.005636,0.000211,  84.404
   331.8,0.000216,0.000218,0.005815,0.000211,  84.362
   332.0,0.000219,0.000218,0.005965,0.000224,  84.350
   332.2,0.000215,0.000221,0.006082,0.000211,  84.344
   332.4,0.000213,0.000225,0.006159,0.000211,  84.357
   332.6,0.000219,0.000227,0.006206,0.000224,  84.367
   332.8,0.000218,0.000232,0.006218,0.000224,  84.383
   333.0,0.000230,0.000240,0.006331,0.000237,  84.389
   333.2,0.000237,0.000247,0.006476,0.000250,  84.391
   333.4,0.000209,0.000260,0.006652,0.000237,  84.403
   333.6,0.000155,0.000280,0.006421,0.000237,  84.408
   333.8,0.000093,0.000131,0.006018,0.000263,  84.419
   334.0,-0.000043,-0.000090,0.005408,0.000263,  84.419
   334.2,-0.000231,-0.000393,0.005183,0.000276,  84.433
   334.4,-0.000459,-0.000459,0.005056,0.000185,  84.431
   334.6,-0.000493,-0.000439,0.005013,0.000055,  84.430
   334.8,-0.000453,-0.000340,0.005043,-0.000152,  84.407
   335.0,-0.000343,-0.000296,0.005146,-0.000243,  84.385
   335.2,-0.000294,-0.000243,0.005327,-0.000295,  84.348
   335.4,-0.000239,-0.000180,0.005390,-0.000334,  84.330
   335.6,-0.000178,-0.000135,0.005443,-0.000334,  84.331
   335.8,-0.000134,-0.000090,0.005475,-0.000308,  84.349
   336.0,-0.000096,-0.000053,0.005493,-0.000256,  84.355
   336.2,-0.000059,-0.000019,0.005576,-0.000178,  84.369
   336.4,-0.000019,0.000012,0.005664,-0.000127,  84.378
   336.6,0.000016,0.000044,0.005795,-0.000088,  84.393
   336.8,0.000059,-0.000061,0.005784,-0.000036,  84.400
   337.0,-0.000093,-0.000240,0.005706,0.000003,  84.408
   337.2,-0.000346,-0.000486,0.005561,0.000042,  84.410
   337.4,-0.000683,-0.000577,0.005320,0.000055,  84.416
   337.6,-0.000748,-0.000615,0.004997,0.000081,  84.424
   337.8,-0.000726,-0.000618,0.004589,0.000120,  84.431
   338.0,-0.000601,-0.000571,0.004536,0.000133,  84.434
   338.2,-0.000536,-0.000527,0.004602,0.000016,  84.431
   338.4,-0.000464,-0.000453,0.004798,-0.000178,  84.440
   338.6,-0.000363,-0.000357,0.004923,-0.000451,  84.447
   338.8,-0.000295,-0.000295,0.005058,-0.000477,  84.448
   339.0,-0.000241,-0.000237,0.005199,-0.000438,  84.450
   339.2,-0.000179,-0.000180,0.005298,-0.000321,  84.452
   339.4,-0.000130,-0.000131,0.005398,-0.000256,  84.453
   339.6,-0.000094,-0.000088,0.005473,-0.000204,  84.458
   339.8,-0.000051,-0.000046,0.005551,-0.000139,  84.458
   340.0,-0.000014,-0.000013,0.005635,-0.000075,  84.456
   340.2,0.000008,0.000016,0.005735,-0.000036,  84.461
   340.4,0.000043,0.000046,0.005850,-0.000010,  84.462
   340.6,0.000067,0.000069,0.005953,0.000029,  84.463
   340.8,0.000085,0.000093,0.006084,0.000068,  84.463
   341.0,0.000095,0.000119,0.006132,0.000081,  84.467
   341.2,0.000109,0.000132,0.006123,0.000107,  84.471
   341.4,0.000125,0.000144,0.006095,0.000133,  84.468
   341.6,0.000135,0.000155,0.006113,0.000146,  84.460
   341.8,0.000146,0.000162,0.006118,0.000159,  84.436
   342.0,0.000150,0.000170,0.006125,0.000172,  84.417
   342.2,0.000160,0.000180,0.006234,0.000172,  84.410
   342.4,0.000166,0.000183,0.006409,0.000185,  84.409
   342.6,0.000164,0.000194,0.006615,0.000211,  84.408
   342.8,0.000179,0.000202,0.006661,0.000198,  84.412
   343.0,0.000184,0.000208,0.006658,0.000211,  84.421
   343.2,0.000188,0.000219,0.006582,0.000224,  84.427
   343.4,0.000208,0.000234,0.006609,0.000224,  84.432
   343.6,0.000226,0.000234,0.006646,0.000237,  84.434
   343.8,0.000210,0.000234,0.006699,0.000237,  84.440
   344.0,0.000171,0.000241,0.006524,0.000224,  84.439
   344.2,0.000122,0.000218,0.006255,0.000237,  84.448
   344.4,0.000104,0.000182,0.005862,0.000250,  84.449
   344.6,0.000087,0.000143,0.005377,0.000263,  84.454
   344.8,0.000088,0.000140,0.005418,0.000276,  84.440
   345.0,0.000093,0.000146,0.005576,0.000250,  84.414
   345.2,0.000100,0.000165,0.005900,0.000198,  84.386
   345.4,0.000127,0.000171,0.005783,0.000120,  84.365
   345.6,0.000141,0.000178,0.005526,0.000107,  84.356
   345.8,0.000145,0.000184,0.005106,0.000094,  84.368
   346.0,0.000162,0.000189,0.005138,0.000120,  84.370
   346.2,0.000175,0.000196,0.005303,0.000146,  84.384
   346.4,0.000181,0.000210,0.005617,0.000146,  84.389
   346.6,0.000201,0.000216,0.005777,0.000159,  84.404
   346.8,0.000156,0.000210,0.005932,0.000172,  84.412
   347.0,0.000076,0.000213,0.006072,0.000185,  84.411
   347.2,-0.000022,0.000209,0.005934,0.000185,  84.423
   347.4,-0.000127,0.000087,0.005645,0.000198,  84.426
   347.6,-0.000251,-0.000086,0.005204,0.000211,  84.433
   347.8,-0.000379,-0.000308,0.004709,0.000260,  84.436
   348.0,-0.000387,-0.000350,0.004092,0.000133,  84.436
   348.2,-0.000354,-0.000325,0.003366,-0.000010,  84.443
   348.4,-0.000255,-0.000231,0.003356,-0.000182,  84.432
   348.6,-0.000208,-0.000192,0.003638,-0.000269,  84.414
   348.8,-0.000161,-0.000144,0.004224,-0.000295,  84.407
   349.0,-0.000107,-0.000094,0.004506,-0.000246,  84.404
   349.2,-0.000068,-0.000059,0.004783,-0.000243,  84.411
   349.4,-0.000031,-0.000020,0.005067,-0.000204,  84.413
   349.6,0.000003,0.000016,0.005315,-0.000104,  84.422
   349.8,0.000037,0.000045,0.005521,-0.000088,  84.426
   350.0,0.000066,0.000074,0.005729,-0.000049,  84.430
   350.2,0.000097,0.000100,0.005731,-0.000010,  84.440
   350.4,0.000092,0.000096,0.005594,0.000029,  84.439
   350.6,0.000066,0.000084,0.005339,0.000055,  84.446
   350.8,0.000026,0.000049,0.005354,0.000104,  84.450
   351.0,-0.000039,0.000039,0.005440,0.000107,  84.452
   351.2,-0.000037,0.000037,0.005592,0.000146,  84.452
   351.4,-0.000021,0.000039,0.005705,0.000208,  84.460
   351.6,0.000008,0.000048,0.005829,0.000159,  84.453
   351.8,0.000029,0.000067,0.005963,0.000133,  84.456
   352.0,0.000053,0.000100,0.006046,0.000091,  84.453
   352.2,0.000085,0.000111,0.006099,0.000055,  84.459
   352.4,0.000104,0.000122,0.006127,0.000081,  84.464
   352.6,0.000113,0.000139,0.006210,0.000107,  84.471
   352.8,0.000130,0.000146,0.006308,0.000120,  84.472
   353.0,0.000146,0.000157,0.006427,0.000133,  84.474
   353.2,0.000152,0.000172,0.006479,0.000146,  84.469
   353.4,0.000167,0.000181,0.006490,0.000159,  84.472
   353.6,0.000180,0.000192,0.006480,0.000172,  84.468
   353.8,0.000186,0.000208,0.006517,0.000185,  84.474
   354.0,0.000203,0.000216,0.006574,0.000198,  84.475
   354.2,0.000214,0.000226,0.006630,0.000211,  84.476
   354.4,0.000215,0.000240,0.006708,0.000224,  84.474
   354.6,0.000230,0.000243,0.006745,0.000224,  84.475
   354.8,0.000235,0.000244,0.006766,0.000237,  84.468
   355.0,0.000234,0.000246,0.006782,0.000250,  84.436
   355.2,0.000237,0.000245,0.006777,0.000250,  84.397
   355.4,0.000237,0.000248,0.006748,0.000263,  84.377
   355.6,0.000234,0.000246,0.006687,0.000263,  84.363
   355.8,0.000237,0.000246,0.006662,0.000263,  84.374
   356.0,0.000240,0.000250,0.006663,0.000276,  84.381
   356.2,0.000236,0.000242,0.006637,0.000276,  84.388
   356.4,0.000243,0.000247,0.006673,0.000276,  84.396
   356.6,0.000261,0.000254,0.006746,0.000289,  84.411
   356.8,0.000276,0.000277,0.006834,0.000289,  84.415
   357.0,0.000311,0.000298,0.006734,0.000276,  84.418
   357.2,0.000190,0.000180,0.006552,0.000276,  84.426
   357.4,-0.000013,0.000003,0.006264,0.000289,  84.428
   357.6,-0.000283,-0.000239,0.006111,0.000289,  84.436
   357.8,-0.000336,-0.000301,0.005969,0.000276,  84.440
   358.0,-0.000320,-0.000305,0.005825,0.000263,  84.442
   358.2,-0.000229,-0.000251,0.005761,0.000224,  84.437
   358.4,-0.000193,-0.000224,0.005767,0.000146,  84.414
   358.6,-0.000152,-0.000178,0.005815,0.000029,  84.376
   358.8,-0.000100,-0.000113,0.005810,-0.000127,  84.348
   359.0,-0.000063,-0.000077,0.005828,-0.000139,  84.340
   359.2,-0.000040,-0.000037,0.005845,-0.000114,  84.348
   359.4,-0.000010,-0.000000,0.005883,-0.000062,  84.363
   359.6,0.000005,0.000033,0.005920,-0.000023,  84.374
   359.8,0.000037,0.000066,0.005968,0.000016,  84.387
   360.0,0.000068,0.000091,0.005846,0.000042,  84.388
   360.2,0.000100,0.000065,0.005625,0.000068,  84.398
   360.4,0.000013,0.000010,0.005334,0.000094,  84.405
   360.6,-0.000143,-0.000072,0.005166,0.000107,  84.416
   360.8,-0.000352,-0.000176,0.005003,0.000133,  84.417
   361.0,-0.000439,-0.000302,0.004859,0.000172,  84.430
   361.2,-0.000500,-0.000445,0.004814,0.000198,  84.430
   361.4,-0.000518,-0.000457,0.004819,0.000094,  84.438
   361.6,-0.000491,-0.000410,0.004882,-0.000101,  84.439
   361.8,-0.000432,-0.000302,0.004984,-0.000373,  84.443
   362.0,-0.000324,-0.000255,0.005119,-0.000425,  84.444
   362.2,-0.000263,-0.000199,0.005301,-0.000412,  84.445
   362.4,-0.000209,-0.000142,0.005400,-0.000334,  84.452
   362.6,-0.000153,-0.000100,0.005484,-0.000308,  84.457
   362.8,-0.000106,-0.000057,0.005531,-0.000256,  84.455
   363.0,-0.000071,-0.000017,0.005564,-0.000217,  84.461
   363.2,-0.000027,0.000011,0.005624,-0.000152,  84.464
   363.4,0.000009,0.000046,0.005662,-0.000101,  84.466
   363.6,0.000036,0.000074,0.005701,-0.000062,  84.464
   363.8,0.000068,0.000097,0.005815,-0.000023,  84.467
   364.0,0.000095,0.000121,0.005976,0.000016,  84.468
   364.2,0.000116,0.000140,0.006162,0.000055,  84.469
   364.4,0.000131,0.000150,0.006235,0.000081,  84.471
   364.6,0.000147,0.000167,0.006263,0.000107,  84.471
   364.8,0.000160,0.000169,0.006245,0.000133,  84.471
   365.0,0.000165,0.000176,0.006317,0.000146,  84.466
   365.2,0.000176,0.000182,0.006426,0.000159,  84.448
   365.4,0.000181,0.000195,0.006544,0.000185,  84.410
   365.6,0.000186,0.000202,0.006569,0.000198,  84.394
   365.8,0.000194,0.000204,0.006549,0.000224,  84.391
   366.0,0.000199,0.000212,0.006505,0.000237,  84.395
   366.2,0.000202,0.000214,0.006541,0.000224,  84.400
   366.4,0.000213,0.000218,0.006603,0.000237,  84.408
   366.6,0.000217,0.000225,0.006686,0.000250,  84.417
   366.8,0.000227,0.000236,0.006707,0.000250,  84.424
   367.0,0.000214,0.000247,0.006735,0.000263,  84.427
   367.2,0.000184,0.000269,0.006732,0.000263,  84.433
   367.4,0.000154,0.000292,0.006663,0.000263,  84.439
   367.6,0.000104,0.000233,0.006546,0.000276,  84.442
   367.8,0.000034,0.000145,0.006387,0.000276,  84.444
   368.0,-0.000038,0.000013,0.006313,0.000312,  84.453
   368.2,-0.000056,-0.000013,0.006256,0.000224,  84.444
   368.4,-0.000054,-0.000001,0.006221,0.000146,  84.417
   368.6,-0.000027,0.000046,0.006206,0.000065,  84.390
   368.8,0.000026,0.000062,0.006217,-0.000010,  84.349
   369.0,0.000047,0.000082,0.006249,-0.000023,  84.340
   369.2,0.000066,0.000107,0.006311,0.000039,  84.347
   369.4,0.000089,0.000127,0.006415,0.000029,  84.353
   369.6,0.000110,0.000144,0.006539,0.000042,  84.370
   369.8,0.000129,0.000162,0.006575,0.000104,  84.388
   370.0,0.000142,0.000186,0.006576,0.000094,  84.393
   370.2,0.000144,0.000203,0.006568,0.000120,  84.403
   370.4,0.000137,0.000226,0.006359,0.000146,  84.409
   370.6,0.000121,0.000090,0.005997,0.000159,  84.407
   370.8,-0.000005,-0.000125,0.005548,0.000185,  84.421
   371.0,-0.000199,-0.000416,0.005329,0.000198,  84.425
   371.2,-0.000451,-0.000471,0.005152,0.000146,  84.424
   371.4,-0.000488,-0.000453,0.005027,0.000055,  84.433
   371.6,-0.000451,-0.000348,0.004985,-0.000101,  84.440
   371.8,-0.000338,-0.000299,0.005011,-0.000178,  84.432
   372.0,-0.000288,-0.000243,0.005104,-0.000230,  84.419
   372.2,-0.000233,-0.000173,0.005250,-0.000282,  84.406
   372.4,-0.000176,-0.000126,0.005358,-0.000321,  84.404
   372.6,-0.000131,-0.000079,0.005498,-0.000308,  84.404
   372.8,-0.000086,-0.000041,0.005675,-0.000269,  84.406
   373.0,-0.000046,-0.000005,0.005800,-0.000204,  84.418
   373.2,-0.000009,0.000022,0.005904,-0.000152,  84.420
   373.4,0.000021,0.000055,0.006009,-0.000101,  84.424
   373.6,0.000059,0.000079,0.006134,-0.000049,  84.430
   373.8,0.000056,0.000092,0.006269,0.000003,  84.438
   374.0,0.000033,0.000108,0.006404,0.000042,  84.441
   374.2,-0.000005,0.000112,0.006394,0.000068,  84.443
   374.4,-0.000013,0.000094,0.006295,0.000094,  84.445
   374.6,-0.000018,0.000059,0.006128,0.000120,  84.450
   374.8,-0.000018,0.000012,0.006117,0.000182,  84.456
   375.0,-0.000000,0.000016,0.006138,0.000120,  84.463
   375.2,0.000023,0.000033,0.006195,0.000055,  84.459
   375.4,0.000058,0.000077,0.006237,0.000013,  84.462
   375.6,0.000081,0.000098,0.006269,-0.000023,  84.460
   375.8,0.000102,0.000115,0.006317,-0.000010,  84.467
   376.0,0.000121,0.000138,0.006324,0.000065,  84.464
   376.2,0.000144,0.000153,0.006299,0.000055,  84.471
   376.4,0.000158,0.000165,0.006249,0.000068,  84.469
   376.6,0.000178,0.000178,0.006286,0.000130,  84.468
   376.8,0.000191,0.000191,0.006364,0.000133,  84.470
   377.0,0.000203,0.000201,0.006468,0.000146,  84.473
   377.2,0.000211,0.000214,0.006499,0.000195,  84.472
   377.4,0.000217,0.000221,0.006500,0.000172,  84.474
   377.6,0.000221,0.000231,0.006497,0.000185,  84.479
   377.8,0.000229,0.000243,0.006554,0.000221,  84.476
   378.0,0.000235,0.000244,0.006622,0.000198,  84.481
   378.2,0.000242,0.000247,0.006710,0.000198,  84.477
   378.4,0.000239,0.000253,0.006741,0.000247,  84.452
   378.6,0.000241,0.000253,0.006737,0.000224,  84.408
   378.8,0.000240,0.000249,0.006712,0.000224,  84.367
   379.0,0.000234,0.000255,0.006768,0.000273,  84.352
   379.2,0.000240,0.000256,0.006866,0.000250,  84.356
   379.4,0.000243,0.000251,0.006995,0.000250,  84.363
   379.6,0.000239,0.000248,0.007062,0.000286,  84.370
   379.8,0.000248,0.000256,0.007113,0.000263,  84.388
   380.0,0.000264,0.000272,0.007160,0.000263,  84.395
   380.2,0.000276,0.000286,0.007113,0.000286,  84.406
   380.4,0.000303,0.000189,0.007010,0.000286,  84.410
   380.6,0.000167,0.000039,0.006834,0.000299,  84.420
   380.8,-0.000058,-0.000166,0.006655,0.000263,  84.425
   381.0,-0.000350,-0.000257,0.006476,0.000299,  84.427
   381.2,-0.000429,-0.000314,0.006243,0.000276,  84.433
   381.4,-0.000446,-0.000341,0.005990,0.000289,  84.441
   381.6,-0.000379,-0.000330,0.005746,0.000351,  84.440
   381.8,-0.000342,-0.000279,0.005484,0.000211,  84.414
   382.0,-0.000291,-0.000195,0.005207,0.000029,  84.395
   382.2,-0.000206,-0.000151,0.005217,-0.000243,  84.352
   382.4,-0.000153,-0.000102,0.005363,-0.000282,  84.338
   382.6,-0.000113,-0.000056,0.005637,-0.000269,  84.340
   382.8,-0.000062,-0.000021,0.005772,-0.000191,  84.357
   383.0,-0.000020,0.000006,0.005892,-0.000152,  84.367
   383.2,0.000008,0.000035,0.006012,-0.000101,  84.379
   383.4,0.000043,0.000051,0.006143,-0.000062,  84.392
   383.6,0.000030,0.000074,0.006247,-0.000023,  84.398
   383.8,-0.000016,0.000102,0.006357,0.000016,  84.408
   384.0,-0.000077,0.000126,0.006183,0.000042,  84.417
   384.2,-0.000174,0.000016,0.005863,0.000068,  84.413
   384.4,-0.000300,-0.000160,0.005387,0.000107,  84.423
   384.6,-0.000448,-0.000402,0.005251,0.000133,  84.429
   384.8,-0.000459,-0.000441,0.005192,0.000055,  84.434
   385.0,-0.000409,-0.000411,0.005218,-0.000088,  84.440
   385.2,-0.000304,-0.000310,0.005280,-0.000282,  84.444
   385.4,-0.000254,-0.000265,0.005394,-0.000334,  84.446
   385.6,-0.000202,-0.000214,0.005576,-0.000360,  84.447
   385.8,-0.000150,-0.000155,0.005660,-0.000347,  84.447
   386.0,-0.000110,-0.000108,0.005707,-0.000308,  84.458
   386.2,-0.000083,-0.000069,0.005746,-0.000256,  84.458
   386.4,-0.000053,-0.000035,0.005830,-0.000178,  84.460
   386.6,-0.000032,0.000001,0.005935,-0.000127,  84.459
   386.8,-0.000000,0.000032,0.006034,-0.000075,  84.461
   387.0,0.000031,0.000060,0.006143,-0.000026,  84.460
   387.2,0.000060,0.000086,0.006284,-0.000023,  84.465
   387.4,0.000089,0.000110,0.006424,0.000016,  84.466
   387.6,0.000110,0.000133,0.006507,0.000078,  84.469
   387.8,0.000128,0.000144,0.006587,0.000068,  84.471
   388.0,0.000147,0.000159,0.006645,0.000094,  84.472
   388.2,0.000157,0.000171,0.006657,0.000156,  84.473
   388.4,0.000165,0.000176,0.006632,0.000146,  84.472
   388.6,0.000173,0.000178,0.006567,0.000159,  84.470
   388.8,0.000181,0.000186,0.006583,0.000208,  84.428
   389.0,0.000186,0.000194,0.006594,0.000185,  84.412
   389.2,0.000191,0.000195,0.006642,0.000211,  84.406
   389.4,0.000197,0.000201,0.006714,0.000234,  84.404
   389.6,0.000202,0.000208,0.006796,0.000211,  84.406
   389.8,0.000210,0.000217,0.006910,0.000211,  84.415
   390.0,0.000218,0.000224,0.006946,0.000247,  84.416
   390.2,0.000220,0.000236,0.006956,0.000247,  84.428
   390.4,0.000241,0.000259,0.006953,0.000260,  84.430
   390.6,0.000261,0.000281,0.006913,0.000224,  84.438
   390.8,0.000293,0.000237,0.006860,0.000260,  84.442
   391.0,0.000253,0.000158,0.006797,0.000237,  84.447
   391.2,0.000168,0.000056,0.006708,0.000273,  84.450
   391.4,0.000064,0.000041,0.006671,0.000308,  84.450
   391.6,0.000046,0.000046,0.006639,0.000286,  84.451
   391.8,0.000050,0.000081,0.006613,0.000295,  84.433
   392.0,0.000093,0.000091,0.006422,0.000282,  84.399
   392.2,0.000106,0.000105,0.006146,0.000234,  84.366
   392.4,0.000116,0.000119,0.005782,0.000195,  84.340
   392.6,0.000140,0.000138,0.005824,0.000143,  84.338
   392.8,0.000153,0.000154,0.006020,0.000107,  84.349
   393.0,0.000160,0.000167,0.006359,0.000120,  84.355
   393.2,0.000177,0.000183,0.006474,0.000182,  84.370
   393.4,0.000198,0.000203,0.006526,0.000159,  84.383
   393.6,0.000210,0.000218,0.006544,0.000172,  84.391
   393.8,0.000240,0.000233,0.006520,0.000221,  84.406
   394.0,0.000088,0.000104,0.006455,0.000211,  84.402
   394.2,-0.000160,-0.000099,0.006342,0.000211,  84.419
   394.4,-0.000488,-0.000374,0.005755,0.000247,  84.423
   394.6,-0.000558,-0.000458,0.004917,0.000211,  84.427
   394.8,-0.000543,-0.000478,0.003822,0.000185,  84.435
   395.0,-0.000443,-0.000438,0.003717,0.000195,  84.435
   395.2,-0.000412,-0.000406,0.003978,0.000042,  84.434
   395.4,-0.000364,-0.000347,0.004615,-0.000114,  84.423
   395.6,-0.000315,-0.000255,0.004846,-0.000285,  84.401
   395.8,-0.000254,-0.000202,0.005068,-0.000360,  84.391
   396.0,-0.000202,-0.000152,0.005277,-0.000334,  84.396
   396.2,-0.000152,-0.000099,0.005489,-0.000195,  84.403
   396.4,-0.000102,-0.000054,0.005685,-0.000178,  84.406
   396.6,-0.000058,-0.000024,0.005903,-0.000139,  84.418
   396.8,-0.000021,0.000014,0.006033,-0.000052,  84.422
   397.0,0.000011,0.000056,0.006102,-0.000049,  84.429
   397.2,0.000039,0.000096,0.006126,-0.000010,  84.435
   397.4,0.000066,0.000135,0.005508,0.000052,  84.440
   397.6,0.000084,0.000114,0.004542,0.000068,  84.442
   397.8,0.000068,0.000066,0.003225,0.000094,  84.446
   398.0,0.000034,-0.000018,0.003245,0.000143,  84.453
   398.2,-0.000017,-0.000027,0.003766,0.000107,  84.450
   398.4,-0.000014,-0.000006,0.004759,0.000068,  84.455
   398.6,0.000000,0.000037,0.005113,0.000039,  84.458
   398.8,0.000046,0.000058,0.005376,0.000026,  84.459
   399.0,0.000067,0.000075,0.005552,0.000026,  84.460
   399.2,0.000079,0.000096,0.005754,-0.000010,  84.465
   399.4,0.000101,0.000116,0.005909,0.000039,  84.464
   399.6,0.000117,0.000127,0.006022,0.000029,  84.468
   399.8,0.000126,0.000146,0.006110,0.000042,  84.467
   400.0,0.000143,0.000153,0.006260,0.000104,  84.467
   400.2,0.000156,0.000165,0.006436,0.000094,  84.476
   400.4,0.000163,0.000174,0.006607,0.000120,  84.475
   400.6,0.000180,0.000184,0.006705,0.000169,  84.477
   400.8,0.000193,0.000196,0.006779,0.000159,  84.473
   401.0,0.000197,0.000214,0.006816,0.000172,  84.478
   401.2,0.000216,0.000220,0.006899,0.000221,  84.480
   401.4,0.000227,0.000222,0.006972,0.000211,  84.478
   401.6,0.000232,0.000233,0.007050,0.000211,  84.479
   401.8,0.000241,0.000234,0.007092,0.000247,  84.466
   402.0,0.000244,0.000238,0.007098,0.000224,  84.432
   402.2,0.000247,0.000235,0.007078,0.000224,  84.394
   402.4,0.000244,0.000237,0.007135,0.000273,  84.372
   402.6,0.000244,0.000241,0.007187,0.000250,  84.365
   402.8,0.000247,0.000239,0.007264,0.000250,  84.376
   403.0,0.000244,0.000243,0.007255,0.000250,  84.380
   403.2,0.000252,0.000249,0.007209,0.000263,  84.388
   403.4,0.000256,0.000254,0.007117,0.000263,  84.399
   403.6,0.000260,0.000263,0.007132,0.000250,  84.411
   403.8,0.000181,0.000239,0.007210,0.000263,  84.420
   404.0,0.000058,0.000199,0.007319,0.000263,  84.421
   404.2,-0.000104,0.000148,0.007104,0.000286,  84.426
   404.4,-0.000180,0.000058,0.006732,0.000276,  84.434
   404.6,-0.000237,-0.000061,0.006210,0.000289,  84.434
   404.8,-0.000275,-0.000202,0.006082,0.000325,  84.438
   405.0,-0.000282,-0.000222,0.006086,0.000198,  84.440
   405.2,-0.000267,-0.000195,0.006203,0.000055,  84.434
   405.4,-0.000216,-0.000117,0.006265,-0.000178,  84.395
   405.6,-0.000146,-0.000084,0.006344,-0.000230,  84.369
   405.8,-0.000104,-0.000049,0.006453,-0.000217,  84.338
   406.0,-0.000059,-0.000008,0.006553,-0.000143,  84.336
   406.2,-0.000016,0.000026,0.006636,-0.000152,  84.347
   406.4,0.000018,0.000048,0.006725,-0.000101,  84.360
   406.6,0.000050,0.000075,0.006756,-0.000049,  84.367
   406.8,0.000073,0.000102,0.006774,-0.000010,  84.380
   407.0,0.000106,0.000133,0.006750,0.000029,  84.387
   407.2,0.000132,0.000166,0.006598,0.000055,  84.392
   407.4,0.000151,0.000031,0.006362,0.000081,  84.406
   407.6,0.000012,-0.000185,0.006037,0.000120,  84.408
   407.8,-0.000206,-0.000483,0.005852,0.000133,  84.422
   408.0,-0.000517,-0.000546,0.005689,0.000120,  84.428
   408.2,-0.000573,-0.000536,0.005551,0.000055,  84.435
   408.4,-0.000536,-0.000446,0.005498,-0.000023,  84.439
   408.6,-0.000412,-0.000402,0.005488,-0.000088,  84.434
   408.8,-0.000357,-0.000335,0.005530,-0.000165,  84.441
   409.0,-0.000296,-0.000252,0.005626,-0.000256,  84.445
   409.2,-0.000226,-0.000198,0.005678,-0.000360,  84.445
   409.4,-0.000171,-0.000147,0.005732,-0.000360,  84.452
   409.6,-0.000123,-0.000106,0.005807,-0.000321,  84.455
   409.8,-0.000081,-0.000070,0.005886,-0.000208,  84.453
   410.0,-0.000039,-0.000032,0.005970,-0.000191,  84.462
   410.2,-0.000005,-0.000001,0.006054,-0.000139,  84.462
   410.4,0.000023,0.000024,0.006134,-0.000065,  84.461
   410.6,0.000052,0.000054,0.006202,-0.000049,  84.462
   410.8,0.000079,0.000065,0.006266,0.000013,  84.467
   411.0,0.000097,0.000086,0.006318,0.000075,  84.467
   411.2,0.000115,0.000104,0.006346,0.000078,  84.467
   411.4,0.000134,0.000119,0.006364,0.000140,  84.469
   411.6,0.000147,0.000138,0.005953,0.000152,  84.473
   411.8,0.000157,0.000149,0.005305,0.000143,  84.469
   412.0,0.000168,0.000158,0.004450,0.000169,  84.473
   412.2,0.000173,0.000165,0.004492,0.000182,  84.438
   412.4,0.000181,0.000168,0.004861,0.000159,  84.411
   412.6,0.000189,0.000180,0.005576,0.000172,  84.390
   412.8,0.000191,0.000184,0.005859,0.000221,  84.390
   413.0,0.000199,0.000187,0.006086,0.000211,  84.394
   413.2,0.000207,0.000198,0.006257,0.000211,  84.401
   413.4,0.000212,0.000204,0.006427,0.000247,  84.407
   413.6,0.000228,0.000214,0.006567,0.000224,  84.413
   413.8,0.000247,0.000232,0.006686,0.000224,  84.420
   414.0,0.000270,0.000251,0.006753,0.000273,  84.428
   414.2,0.000226,0.000187,0.006779,0.000250,  84.438
   414.4,0.000143,0.000087,0.006762,0.000250,  84.439
   414.6,0.000048,-0.000046,0.006693,0.000250,  84.445
   414.8,-0.000093,-0.000084,0.006567,0.000276,  84.450
   415.0,-0.000112,-0.000094,0.006394,0.000302,  84.448
   415.2,-0.000101,-0.000066,0.006373,0.000315,  84.445
   415.4,-0.000064,-0.000046,0.006388,0.000263,  84.416
   415.6,-0.000038,-0.000019,0.006462,0.000172,  84.383
   415.8,-0.000007,0.000020,0.006519,0.000029,  84.350
   416.0,0.000030,0.000048,0.006576,0.000003,  84.348
   416.2,0.000047,0.000068,0.006644,0.000016,  84.348
   416.4,0.000071,0.000087,0.006732,0.000055,  84.364
   416.6,0.000092,0.000108,0.006836,0.000081,  84.378
   416.8,0.000106,0.000132,0.006934,0.000107,  84.388
   417.0,0.000130,0.000151,0.006934,0.000120,  84.397
   417.2,0.000160,0.000085,0.006878,0.000146,  84.403
   417.4,0.000042,-0.000019,0.006766,0.000159,  84.412
   417.6,-0.000152,-0.000167,0.006524,0.000172,  84.417
   417.8,-0.000420,-0.000257,0.006208,0.000198,  84.426
   418.0,-0.000496,-0.000335,0.005793,0.000224,  84.431
   418.2,-0.000514,-0.000402,0.005635,0.000237,  84.434
   418.4,-0.000475,-0.000392,0.005566,0.000250,  84.438
   418.6,-0.000438,-0.000346,0.005593,0.000133,  84.440
   418.8,-0.000372,-0.000252,0.005698,-0.000075,  84.426
   419.0,-0.000281,-0.000200,0.005740,-0.000334,  84.404
   419.2,-0.000217,-0.000155,0.005794,-0.000373,  84.391
   419.4,-0.000162,-0.000103,0.005863,-0.000347,  84.388
   419.6,-0.000114,-0.000067,0.005982,-0.000269,  84.388
   419.8,-0.000066,-0.000043,0.006126,-0.000217,  84.404
   420.0,-0.000027,-0.000012,0.006292,-0.000165,  84.406
   420.2,0.000004,0.000001,0.006422,-0.000114,  84.416
   420.4,0.000043,0.000034,0.006547,-0.000062,  84.421
   420.6,0.000082,0.000063,0.006657,-0.000036,  84.424
   420.8,0.000119,0.000098,0.006621,0.000003,  84.425
   421.0,0.000075,0.000049,0.006491,0.000055,  84.433
   421.2,-0.000020,-0.000048,0.006278,0.000068,  84.434
   421.4,-0.000159,-0.000181,0.006180,0.000094,  84.438
   421.6,-0.000169,-0.000199,0.006076,0.000120,  84.451
   421.8,-0.000143,-0.000174,0.005978,0.000120,  84.450
   422.0,-0.000078,-0.000109,0.005999,0.000107,  84.456
   422.2,-0.000049,-0.000079,0.006072,0.000081,  84.456
   422.4,-0.000017,-0.000043,0.006201,0.000042,  84.458
   422.6,0.000014,-0.000007,0.006275,-0.000036,  84.457
   422.8,0.000038,0.000022,0.006338,-0.000036,  84.463
   423.0,0.000052,0.000047,0.006380,-0.000010,  84.466
   423.2,0.000072,0.000071,0.006452,0.000029,  84.467
   423.4,0.000085,0.000092,0.006562,0.000055,  84.465
   423.6,0.000103,0.000110,0.006656,0.000068,  84.464
   423.8,0.000122,0.000131,0.006698,0.000094,  84.468
   424.0,0.000138,0.000148,0.006720,0.000120,  84.473
   424.2,0.000156,0.000166,0.006712,0.000133,  84.476
   424.4,0.000172,0.000182,0.006769,0.000133,  84.475
   424.6,0.000187,0.000197,0.006848,0.000159,  84.471
   424.8,0.000194,0.000203,0.006947,0.000172,  84.478
   425.0,0.000202,0.000208,0.007030,0.000185,  84.477
   425.2,0.000207,0.000214,0.007107,0.000211,  84.469
   425.4,0.000215,0.000217,0.007180,0.000224,  84.439
   425.6,0.000218,0.000216,0.007186,0.000224,  84.396
   425.8,0.000224,0.000216,0.007166,0.000237,  84.356
   426.0,0.000236,0.000220,0.007105,0.000237,  84.347
   426.2,0.000236,0.000218,0.007135,0.000237,  84.356
   426.4,0.000229,0.000216,0.007202,0.000237,  84.367
   426.6,0.000237,0.000225,0.007311,0.000237,  84.372
   426.8,0.000242,0.000229,0.007368,0.000237,  84.390
   427.0,0.000253,0.000233,0.007435,0.000237,  84.397
   427.2,0.000210,0.000249,0.007477,0.000250,  84.404
   427.4,0.000144,0.000263,0.007524,0.000250,  84.411
   427.6,0.000058,0.000120,0.007292,0.000250,  84.417
   427.8,-0.000080,-0.000095,0.006934,0.000276,  84.431
   428.0,-0.000248,-0.000384,0.006460,0.000276,  84.429
   428.2,-0.000446,-0.000439,0.006229,0.000276,  84.438
   428.4,-0.000472,-0.000419,0.006077,0.000185,  84.434
   428.6,-0.000425,-0.000314,0.006000,0.000029,  84.440
   428.8,-0.000312,-0.000284,0.005825,-0.000191,  84.406
   429.0,-0.000257,-0.000249,0.005620,-0.000282,  84.381
   429.2,-0.000202,-0.000199,0.005402,-0.000334,  84.348
   429.4,-0.000142,-0.000151,0.005461,-0.000347,  84.338
   429.6,-0.000095,-0.000109,0.005611,-0.000321,  84.345
   429.8,-0.000050,-0.000065,0.005891,-0.000269,  84.357
   430.0,-0.000016,-0.000020,0.006047,-0.000178,  84.373
   430.2,0.000023,0.000015,0.006183,-0.000127,  84.377
   430.4,0.000065,0.000052,0.006308,-0.000062,  84.389
   430.6,0.000102,0.000084,0.006333,-0.000036,  84.400
   430.8,-0.000039,-0.000017,0.006302,0.000003,  84.410
   431.0,-0.000273,-0.000184,0.006207,0.000042,  84.414
   431.2,-0.000600,-0.000424,0.006027,0.000068,  84.421
   431.4,-0.000663,-0.000503,0.005774,0.000107,  84.426
   431.6,-0.000645,-0.000533,0.005453,0.000133,  84.430
   431.8,-0.000543,-0.000514,0.005133,0.000159,  84.432
   432.0,-0.000503,-0.000481,0.004785,0.000042,  84.435
   432.2,-0.000458,-0.000416,0.004400,-0.000139,  84.445
   432.4,-0.000393,-0.000313,0.004463,-0.000399,  84.445
   432.6,-0.000323,-0.000254,0.004721,-0.000438,  84.447
   432.8,-0.000271,-0.000203,0.005173,-0.000399,  84.450
   433.0,-0.000207,-0.000147,0.005385,-0.000295,  84.456
   433.2,-0.000153,-0.000105,0.005571,-0.000243,  84.453
   433.4,-0.000104,-0.000066,0.005738,-0.000178,  84.460
   433.6,-0.000068,-0.000027,0.005873,-0.000127,  84.457
   433.8,-0.000025,0.000006,0.005972,-0.000075,  84.465
   434.0,0.000012,0.000037,0.006068,-0.000036,  84.465
   434.2,0.000037,0.000063,0.006204,-0.000010,  84.468
   434.4,0.000067,0.000084,0.006339,0.000029,  84.472
   434.6,0.000091,0.000107,0.006479,0.000068,  84.470
   434.8,0.000108,0.000123,0.006563,0.000081,  84.473
   435.0,0.000130,0.000134,0.006595,0.000107,  84.475
   435.2,0.000146,0.000146,0.006607,0.000133,  84.474
   435.4,0.000150,0.000159,0.006700,0.000146,  84.479
   435.6,0.000161,0.000161,0.006809,0.000159,  84.454
   435.8,0.000172,0.000171,0.006943,0.000172,  84.411
   436.0,0.000173,0.000177,0.006986,0.000172,  84.400
   436.2,0.000182,0.000183,0.006996,0.000172,  84.393
   436.4,0.000188,0.000191,0.006982,0.000185,  84.397
   436.6,0.000189,0.000201,0.006921,0.000198,  84.403
   436.8,0.000201,0.000206,0.006968,0.000198,  84.414
   437.0,0.000214,0.000219,0.007041,0.000198,  84.420
   437.2,0.000221,0.000229,0.007145,0.000211,  84.428
   437.4,0.000243,0.000201,0.007187,0.000234,  84.431
   437.6,0.000185,0.000159,0.007193,0.000211,  84.440
   437.8,0.000085,0.000100,0.007168,0.000224,  84.441
   438.0,-0.000047,0.000063,0.007043,0.000260,  84.449
   438.2,-0.000084,0.000034,0.006823,0.000250,  84.451
   438.4,-0.000089,-0.000001,0.006547,0.000276,  84.452
   438.6,-0.000068,-0.000024,0.006510,0.000325,  84.446
   438.8,-0.000053,-0.000022,0.006539,0.000237,  84.410
   439.0,-0.000021,0.000002,0.006663,0.000146,  84.391
   439.2,0.000018,0.000035,0.006694,0.000026,  84.345
   439.4,0.000044,0.000052,0.006694,-0.000036,  84.328
   439.6,0.000068,0.000073,0.006696,-0.000023,  84.332
   439.8,0.000089,0.000096,0.006774,0.000065,  84.353
   440.0,0.000113,0.000113,0.006872,0.000055,  84.354
   440.2,0.000134,0.000125,0.006996,0.000068,  84.368
   440.4,0.000149,0.000149,0.007048,0.000130,  84.382
   440.6,0.000055,0.000125,0.007090,0.000120,  84.394
   440.8,-0.000100,0.000070,0.007101,0.000133,  84.402
   441.0,-0.000317,-0.000001,0.006781,0.000182,  84.406
   441.2,-0.000433,-0.000145,0.006283,0.000172,  84.413
   441.4,-0.000536,-0.000344,0.005619,0.000185,  84.417
   441.6,-0.000599,-0.000586,0.005418,0.000247,  84.423
   441.8,-0.000654,-0.000617,0.005380,0.000081,  84.434
   442.0,-0.000631,-0.000574,0.005493,-0.000139,  84.430
   442.2,-0.000566,-0.000442,0.005487,-0.000415,  84.431
   442.4,-0.000456,-0.000381,0.005519,-0.000516,  84.413
   442.6,-0.000392,-0.000323,0.005574,-0.000529,  84.396
   442.8,-0.000326,-0.000252,0.005658,-0.000441,  84.386
   443.0,-0.000249,-0.000197,0.005774,-0.000425,  84.392
   443.2,-0.000192,-0.000147,0.005910,-0.000360,  84.397
   443.4,-0.000144,-0.000102,0.006056,-0.000246,  84.407
   443.6,-0.000102,-0.000061,0.006207,-0.000217,  84.413
   443.8,-0.000049,-0.000026,0.006368,-0.000165,  84.425
   444.0,-0.000007,0.000005,0.006411,-0.000078,  84.427
   444.2,0.000035,-0.000027,0.006366,-0.000062,  84.430
   444.4,-0.000003,-0.000091,0.006281,-0.000036,  84.437
   444.6,-0.000095,-0.000188,0.006255,0.000039,  84.440
   444.8,-0.000240,-0.000203,0.006218,0.000065,  84.445
   445.0,-0.000251,-0.000194,0.006179,0.000104,  84.441
   445.2,-0.000222,-0.000162,0.006140,0.000094,  84.451
   445.4,-0.000154,-0.000133,0.006196,0.000156,  84.449
   445.6,-0.000117,-0.000096,0.006273,0.000081,  84.457
   445.8,-0.000078,-0.000052,0.006393,0.000016,  84.456
   446.0,-0.000036,-0.000021,0.006435,-0.000065,  84.456
   446.2,-0.000004,0.000006,0.006458,-0.000101,  84.464
   446.4,0.000025,0.000038,0.006435,-0.000075,  84.468
   446.6,0.000048,0.000062,0.006436,0.000000,  84.467
   446.8,0.000075,0.000079,0.006449,-0.000010,  84.470
   447.0,0.000093,0.000098,0.006445,0.000016,  84.473
   447.2,0.000111,0.000113,0.006472,0.000065,  84.469
   447.4,0.000132,0.000122,0.006510,0.000055,  84.471
   447.6,0.000148,0.000138,0.006568,0.000068,  84.470
   447.8,0.000168,0.000144,0.006497,0.000130,  84.476
   448.0,0.000177,0.000160,0.006348,0.000120,  84.475
   448.2,0.000190,0.000172,0.006148,0.000133,  84.483
   448.4,0.000207,0.000183,0.006201,0.000182,  84.484
   448.6,0.000208,0.000189,0.006339,0.000159,  84.480
   448.8,0.000214,0.000192,0.006557,0.000172,  84.453
   449.0,0.000220,0.000202,0.006691,0.000221,  84.426
   449.2,0.000219,0.000204,0.006830,0.000198,  84.393
   449.4,0.000219,0.000199,0.006959,0.000211,  84.368
   449.6,0.000219,0.000204,0.007068,0.000234,  84.367
   449.8,0.000224,0.000210,0.007155,0.000211,  84.380
   450.0,0.000227,0.000209,0.007228,0.000211,  84.380
   450.2,0.000229,0.000213,0.007269,0.000247,  84.397
   450.4,0.000242,0.000229,0.007296,0.000224,  84.406
   450.6,0.000252,0.000247,0.007297,0.000224,  84.413
   450.8,0.000277,0.000271,0.007186,0.000260,  84.427
   451.0,0.000300,0.000147,0.007007,0.000237,  84.428
   451.2,0.000153,-0.000056,0.006754,0.000237,  84.434
   451.4,-0.000059,-0.000323,0.006554,0.000273,  84.441
   451.6,-0.000340,-0.000389,0.006345,0.000224,  84.438
   451.8,-0.000397,-0.000388,0.006131,0.000172,  84.441
   452.0,-0.000379,-0.000319,0.006089,0.000156,  84.442
   452.2,-0.000285,-0.000281,0.006104,0.000042,  84.424
   452.4,-0.000243,-0.000231,0.006209,-0.000088,  84.394
   452.6,-0.000196,-0.000164,0.006288,-0.000195,  84.357
   452.8,-0.000135,-0.000118,0.006376,-0.000243,  84.335
   453.0,-0.000091,-0.000077,0.006486,-0.000217,  84.336
   453.2,-0.000051,-0.000041,0.006549,-0.000117,  84.349
   453.4,-0.000017,-0.000008,0.006587,-0.000114,  84.362
   453.6,0.000017,0.000024,0.006609,-0.000062,  84.373
   453.8,0.000054,0.000054,0.006662,0.000000,  84.382
   454.0,0.000085,0.000004,0.006714,0.000026,  84.389
   454.2,-0.000033,-0.000081,0.006762,0.000052,  84.402
   454.4,-0.000230,-0.000209,0.006619,0.000042,  84.409
   454.6,-0.000502,-0.000321,0.006387,0.000091,  84.415
   454.8,-0.000602,-0.000449,0.006076,0.000081,  84.423
   455.0,-0.000654,-0.000586,0.005655,0.000107,  84.426
   455.2,-0.000657,-0.000587,0.005570,0.000182,  84.430
   455.4,-0.000623,-0.000537,0.005547,0.000003,  84.439
   455.6,-0.000547,-0.000413,0.005604,-0.000217,  84.439
   455.8,-0.000429,-0.000352,0.005625,-0.000493,  84.445
   456.0,-0.000356,-0.000291,0.005669,-0.000580,  84.445
   456.2,-0.000287,-0.000221,0.005739,-0.000554,  84.452
   456.4,-0.000224,-0.000171,0.005859,-0.000441,  84.453
   456.6,-0.000169,-0.000134,0.006015,-0.000425,  84.455
   456.8,-0.000122,-0.000101,0.006192,-0.000347,  84.456
   457.0,-0.000076,-0.000082,0.006280,-0.000234,  84.459
   457.2,-0.000044,-0.000046,0.006355,-0.000204,  84.464
   457.4,-0.000009,-0.000009,0.006379,-0.000139,  84.466
   457.6,0.000029,0.000024,0.006473,-0.000065,  84.470
   457.8,0.000051,0.000051,0.006556,-0.000049,  84.470
   458.0,0.000072,0.000073,0.006672,-0.000023,  84.470
   458.2,0.000099,0.000093,0.006700,0.000039,  84.474
   458.4,0.000114,0.000111,0.006681,0.000055,  84.472
   458.6,0.000124,0.000124,0.006611,0.000068,  84.471
   458.8,0.000141,0.000131,0.006638,0.000130,  84.471
   459.0,0.000152,0.000138,0.006691,0.000120,  84.468
   459.2,0.000160,0.000145,0.006753,0.000133,  84.440
   459.4,0.000168,0.000159,0.006800,0.000169,  84.415
   459.6,0.000170,0.000171,0.006852,0.000159,  84.398
   459.8,0.000178,0.000172,0.006900,0.000159,  84.397
   460.0,0.000189,0.000181,0.006979,0.000195,  84.402
   460.2,0.000196,0.000186,0.007051,0.000172,  84.407
   460.4,0.000203,0.000196,0.007139,0.000185,  84.417
   460.6,0.000214,0.000204,0.007243,0.000221,  84.424
   460.8,0.000228,0.000216,0.007364,0.000198,  84.435
   461.0,0.000206,0.000232,0.007468,0.000198,  84.436
   461.2,0.000174,0.000255,0.006825,0.000247,  84.440
   461.4,0.000131,0.000200,0.005808,0.000224,  84.445
   461.6,0.000075,0.000100,0.004418,0.000237,  84.451
   461.8,0.000017,-0.000026,0.004283,0.000286,  84.456
   462.0,-0.000051,-0.000050,0.004564,0.000211,  84.456
   462.2,-0.000057,-0.000039,0.005298,0.000107,  84.452
   462.4,-0.000036,0.000010,0.005571,0.000013,  84.417
   462.6,0.000018,0.000024,0.005822,-0.000039,  84.380
   462.8,0.000030,0.000045,0.006071,-0.000039,  84.357
   463.0,0.000061,0.000072,0.006267,-0.000075,  84.354
   463.2,0.000087,0.000088,0.006415,0.000000,  84.361
   463.4,0.000099,0.000104,0.006566,-0.000023,  84.375
   463.6,0.000120,0.000122,0.006653,0.000003,  84.383
   463.8,0.000141,0.000144,0.006804,0.000065,  84.398
   464.0,0.000132,0.000163,0.006949,0.000055,  84.406
   464.2,0.000116,0.000186,0.007090,0.000068,  84.412
   464.4,0.000096,0.000101,0.006905,0.000130,  84.420
   464.6,-0.000041,-0.000045,0.006559,0.000133,  84.417
   464.8,-0.000236,-0.000233,0.006056,0.000146,  84.425
   465.0,-0.000488,-0.000485,0.005893,0.000195,  84.428
   465.2,-0.000528,-0.000514,0.005829,0.000094,  84.438
   465.4,-0.000489,-0.000489,0.005837,-0.000023,  84.440
   465.6,-0.000365,-0.000403,0.005816,-0.000156,  84.439
   465.8,-0.000316,-0.000352,0.005838,-0.000282,  84.422
   466.0,-0.000256,-0.000296,0.005866,-0.000324,  84.406
   466.2,-0.000187,-0.000221,0.005919,-0.000353,  84.389
   466.4,-0.000143,-0.000170,0.006014,-0.000389,  84.388
   466.6,-0.000099,-0.000120,0.006119,-0.000289,  84.395
   466.8,-0.000055,-0.000078,0.006219,-0.000198,  84.402
   467.0,-0.000023,-0.000039,0.006324,-0.000182,  84.407
   467.2,0.000017,-0.000006,0.006434,-0.000094,  84.415
   467.4,0.000055,0.000027,0.006538,-0.000042,  84.423
   467.6,0.000009,0.000034,0.006664,-0.000026,  84.427
   467.8,-0.000070,0.000021,0.006774,0.000036,  84.433
   468.0,-0.000179,-0.000006,0.006679,0.000075,  84.439
   468.2,-0.000213,-0.000042,0.006491,0.000091,  84.446
   468.4,-0.000226,-0.000080,0.006214,0.000152,  84.444
   468.6,-0.000215,-0.000138,0.006182,0.000178,  84.451
   468.8,-0.000184,-0.000136,0.006208,0.000104,  84.456
   469.0,-0.000152,-0.000111,0.006302,0.000049,  84.456
   469.2,-0.000109,-0.000057,0.006359,-0.000107,  84.460
   469.4,-0.000057,-0.000029,0.006407,-0.000156,  84.463
   469.6,-0.000027,-0.000007,0.006465,-0.000094,  84.461
   469.8,0.000009,0.000026,0.006503,-0.000042,  84.465
   470.0,0.000032,0.000045,0.006510,-0.000039,  84.468
   470.2,0.000055,0.000066,0.006512,0.000010,  84.465
   470.4,0.000082,0.000087,0.006569,0.000049,  84.469
   470.6,0.000101,0.000104,0.006648,0.000052,  84.476
   470.8,0.000115,0.000117,0.006747,0.000101,  84.476
   471.0,0.000140,0.000137,0.006841,0.000114,  84.473
   471.2,0.000156,0.000155,0.006939,0.000104,  84.476
   471.4,0.000168,0.000168,0.007032,0.000130,  84.483
   471.6,0.000190,0.000182,0.006976,0.000143,  84.477
   471.8,0.000203,0.000190,0.006837,0.000169,  84.482
   472.0,0.000210,0.000198,0.006637,0.000133,  84.489
   472.2,0.000215,0.000201,0.006355,0.000159,  84.472
   472.4,0.000215,0.000207,0.006437,0.000195,  84.431
   472.6,0.000214,0.000208,0.006598,0.000172,  84.390
   472.8,0.000216,0.000205,0.006866,0.000185,  84.346
   473.0,0.000223,0.000209,0.007006,0.000234,  84.347
   473.2,0.000219,0.000210,0.007130,0.000211,  84.350
   473.4,0.000221,0.000212,0.007238,0.000211,  84.360
   473.6,0.000231,0.000218,0.007341,0.000247,  84.374
   473.8,0.000242,0.000222,0.007425,0.000224,  84.388
   474.0,0.000266,0.000237,0.007514,0.000211,  84.397
   474.2,0.000301,0.000245,0.007455,0.000247,  84.408
   474.4,0.000114,0.000097,0.007307,0.000224,  84.413
   474.6,-0.000167,-0.000116,0.007093,0.000224,  84.418
   474.8,-0.000546,-0.000389,0.006200,0.000260,  84.426
   475.0,-0.000649,-0.000493,0.004938,0.000237,  84.433
   475.2,-0.000645,-0.000553,0.003328,0.000260,  84.439
   475.4,-0.000550,-0.000552,0.003157,0.000282,  84.444
   475.6,-0.000509,-0.000527,0.003534,0.000104,  84.427
   475.8,-0.000429,-0.000466,0.004446,-0.000081,  84.395
   476.0,-0.000330,-0.000358,0.004801,-0.000366,  84.360
   476.2,-0.000270,-0.000297,0.005131,-0.000454,  84.330
   476.4,-0.000206,-0.000241,0.005436,-0.000392,  84.315
   476.6,-0.000156,-0.000184,0.005648,-0.000289,  84.331
   476.8,-0.000115,-0.000135,0.005810,-0.000259,  84.354
   477.0,-0.000075,-0.000092,0.005921,-0.000172,  84.364
   477.2,-0.000046,-0.000054,0.006067,-0.000120,  84.381
   477.4,-0.000023,-0.000037,0.006213,-0.000104,  84.392
   477.6,-0.000088,-0.000039,0.006365,-0.000016,  84.399
   477.8,-0.000193,-0.000049,0.006153,0.000010,  84.403
   478.0,-0.000337,-0.000187,0.005753,0.000013,  84.414
   478.2,-0.000467,-0.000400,0.005170,0.000088,  84.419
   478.4,-0.000598,-0.000676,0.004888,0.000114,  84.425
   478.6,-0.000737,-0.000711,0.004651,-0.000052,  84.430
   478.8,-0.000735,-0.000663,0.004463,-0.000211,  84.439
   479.0,-0.000659,-0.000521,0.004386,-0.000496,  84.440
   479.2,-0.000512,-0.000454,0.004399,-0.000597,  84.444
   479.4,-0.000442,-0.000386,0.004474,-0.000574,  84.448
   479.6,-0.000366,-0.000305,0.004625,-0.000522,  84.452
   479.8,-0.000286,-0.000244,0.004838,-0.000493,  84.459
   480.0,-0.000230,-0.000195,0.005129,-0.000379,  84.460
   480.2,-0.000172,-0.000145,0.005336,-0.000289,  84.465
   480.4,-0.000121,-0.000103,0.005560,-0.000246,  84.469
   480.6,-0.000080,-0.000062,0.005762,-0.000146,  84.458
   480.8,-0.000041,-0.000026,0.005923,-0.000107,  84.466
   481.0,-0.000000,0.000004,0.006059,-0.000068,  84.470
   481.2,0.000027,0.000035,0.006163,-0.000052,  84.468
   481.4,0.000060,0.000059,0.006241,-0.000003,  84.473
   481.6,0.000090,0.000081,0.006345,0.000023,  84.475
   481.8,0.000105,0.000099,0.006461,0.000026,  84.472
   482.0,0.000129,0.000116,0.006554,0.000088,  84.474
   482.2,0.000140,0.000131,0.006628,0.000127,  84.476
   482.4,0.000144,0.000138,0.006655,0.000117,  84.482
   482.6,0.000164,0.000138,0.006672,0.000178,  84.467
   482.8,0.000169,0.000146,0.006699,0.000191,  84.435
   483.0,0.000173,0.000147,0.006715,0.000169,  84.424
   483.2,0.000187,0.000155,0.006733,0.000204,  84.414
   483.4,0.000195,0.000158,0.006775,0.000217,  84.418
   483.6,0.000199,0.000168,0.006828,0.000195,  84.423
   483.8,0.000211,0.000170,0.006874,0.000243,  84.430
   484.0,0.000219,0.000177,0.006973,0.000243,  84.438
   484.2,0.000233,0.000188,0.007092,0.000221,  84.439
   484.4,0.000263,0.000208,0.007216,0.000269,  84.448
   484.6,0.000295,0.000233,0.007082,0.000256,  84.458
   484.8,0.000259,0.000199,0.006817,0.000234,  84.458
   485.0,0.000203,0.000145,0.006441,0.000269,  84.463
   485.2,0.000114,0.000060,0.006384,0.000282,  84.463
   485.4,0.000094,0.000045,0.006429,0.000260,  84.471
   485.6,0.000108,0.000055,0.006579,0.000247,  84.461
   485.8,0.000137,0.000085,0.006692,0.000247,  84.431
   486.0,0.000145,0.000098,0.006800,0.000198,  84.402
   486.2,0.000156,0.000117,0.006945,0.000172,  84.368
   486.4,0.000164,0.000136,0.007017,0.000169,  84.352
   486.6,0.000174,0.000145,0.007055,0.000146,  84.353
   486.8,0.000185,0.000159,0.007056,0.000146,  84.369
   487.0,0.000189,0.000167,0.007103,0.000195,  84.372
   487.2,0.000199,0.000182,0.007161,0.000172,  84.387
   487.4,0.000206,0.000191,0.007203,0.000221,  84.397
   487.6,0.000221,0.000210,0.007077,0.000243,  84.407
   487.8,0.000246,0.000067,0.006872,0.000208,  84.417
   488.0,0.000075,-0.000161,0.006558,0.000269,  84.421
   488.2,-0.000183,-0.000462,0.006341,0.000269,  84.431
   488.4,-0.000527,-0.000544,0.006124,0.000208,  84.433
   488.6,-0.000602,-0.000557,0.005907,0.000217,  84.444
   488.8,-0.000576,-0.000493,0.005844,0.000152,  84.443
   489.0,-0.000460,-0.000453,0.005833,0.000000,  84.448
   489.2,-0.000411,-0.000390,0.005902,-0.000107,  84.443
   489.4,-0.000337,-0.000295,0.005940,-0.000315,  84.432
   489.6,-0.000251,-0.000238,0.005986,-0.000366,  84.409
   489.8,-0.000202,-0.000185,0.006055,-0.000402,  84.403
   490.0,-0.000141,-0.000132,0.006139,-0.000315,  84.409
   490.2,-0.000091,-0.000084,0.006264,-0.000211,  84.414
   490.4,-0.000053,-0.000048,0.006394,-0.000208,  84.421
   490.6,-0.000014,-0.000012,0.006576,-0.000120,  84.426
   490.8,0.000023,0.000029,0.006654,-0.000068,  84.439
   491.0,0.000040,0.000059,0.006719,-0.000052,  84.437
   491.2,0.000044,0.000096,0.006753,0.000010,  84.444
   491.4,0.000047,0.000089,0.006706,0.000049,  84.448
   491.6,0.000027,0.000052,0.006586,0.000052,  84.451
   491.8,-0.000007,0.000003,0.006429,0.000114,  84.457
   492.0,-0.000048,-0.000076,0.006515,0.000140,  84.458
   492.2,-0.000046,-0.000070,0.006706,0.000091,  84.465
   492.4,-0.000013,-0.000043,0.006984,0.000075,  84.462
   492.6,0.000038,-0.000004,0.007026,-0.000003,  84.469
   492.8,0.000057,0.000013,0.007002,-0.000052,  84.467
   493.0,0.000085,0.000040,0.006912,-0.000003,  84.471
   493.2,0.000103,0.000060,0.006526,0.000023,  84.476
   493.4,0.000118,0.000073,0.005967,0.000000,  84.474
   493.6,0.000140,0.000096,0.005229,0.000062,  84.476
   493.8,0.000153,0.000111,0.005265,0.000088,  84.480
   494.0,0.000165,0.000126,0.005605,0.000078,  84.481
   494.2,0.000182,0.000144,0.006238,0.000140,  84.482
   494.4,0.000201,0.000162,0.006450,0.000152,  84.483
   494.6,0.000218,0.000173,0.006586,0.000143,  84.481
   494.8,0.000232,0.000187,0.006634,0.000204,  84.482
   495.0,0.000239,0.000203,0.006748,0.000204,  84.480
   495.2,0.000241,0.000211,0.006852,0.000195,  84.483
   495.4,0.000245,0.000213,0.006935,0.000243,  84.487
   495.6,0.000247,0.000220,0.006993,0.000243,  84.492
   495.8,0.000250,0.000224,0.007024,0.000221,  84.464
   496.0,0.000246,0.000220,0.007057,0.000282,  84.434
   496.2,0.000253,0.000224,0.007145,0.000269,  84.405
   496.4,0.000253,0.000226,0.007248,0.000234,  84.385
   496.6,0.000249,0.000227,0.007377,0.000282,  84.383
   496.8,0.000261,0.000235,0.007454,0.000305,  84.390
   497.0,0.000263,0.000238,0.007516,0.000282,  84.399
   497.2,0.000267,0.000244,0.007552,0.000282,  84.408
   497.4,0.000282,0.000248,0.007558,0.000282,  84.418
   497.6,0.000289,0.000212,0.007534,0.000260,  84.429
   497.8,0.000196,0.000170,0.007495,0.000295,  84.438
   498.0,0.000057,0.000104,0.007290,0.000295,  84.446
   498.2,-0.000129,0.000012,0.006989,0.000286,  84.444
   498.4,-0.000211,-0.000092,0.006604,0.000334,  84.449
   498.6,-0.000256,-0.000216,0.006468,0.000347,  84.455
   498.8,-0.000268,-0.000234,0.006409,0.000282,  84.460
   499.0,-0.000261,-0.000203,0.006403,0.000143,  84.459
   499.2,-0.000214,-0.000130,0.006498,0.000049,  84.436
   499.4,-0.000134,-0.000101,0.006513,-0.000146,  84.404
   499.6,-0.000096,-0.000066,0.006551,-0.000208,  84.359
   499.8,-0.000057,-0.000028,0.006604,-0.000172,  84.338
   500.0,-0.000011,-0.000003,0.006652,-0.000133,  84.340
   500.2,0.000017,0.000027,0.006675,-0.000130,  84.353
   500.4,0.000046,0.000055,0.006707,-0.000055,  84.364
   500.6,0.000076,0.000083,0.006544,-0.000003,  84.385
   500.8,0.000085,0.000104,0.006262,0.000000,  84.401
   501.0,0.000093,0.000122,0.005878,0.000075,  84.404
   501.2,0.000102,0.000143,0.005719,0.000101,  84.415
   501.4,-0.000051,-0.000024,0.005615,0.000091,  84.422
   501.6,-0.000285,-0.000265,0.005564,0.000152,  84.423
   501.8,-0.000590,-0.000586,0.005472,0.000178,  84.428
   502.0,-0.000644,-0.000653,0.005365,0.000104,  84.435
   502.2,-0.000595,-0.000625,0.005265,0.000049,  84.442
   502.4,-0.000455,-0.000513,0.005284,-0.000094,  84.441
   502.6,-0.000401,-0.000463,0.005373,-0.000221,  84.457
   502.8,-0.000330,-0.000389,0.005509,-0.000289,  84.456
   503.0,-0.000253,-0.000307,0.005568,-0.000405,  84.461
   503.2,-0.000200,-0.000252,0.005623,-0.000441,  84.464
   503.4,-0.000141,-0.000193,0.005667,-0.000353,  84.470
   503.6,-0.000094,-0.000141,0.005813,-0.000250,  84.466
   503.8,-0.000058,-0.000096,0.005995,-0.000234,  84.472
   504.0,-0.000015,-0.000062,0.006222,-0.000146,  84.470
   504.2,0.000017,-0.000024,0.006388,-0.000058,  84.471
   504.4,0.000045,0.000010,0.006539,-0.000042,  84.474
   504.6,0.000069,0.000033,0.006679,0.000010,  84.474
   504.8,0.000085,0.000061,0.006768,0.000036,  84.475
   505.0,0.000098,0.000082,0.006826,0.000026,  84.478
   505.2,0.000119,0.000098,0.006865,0.000088,  84.483
   505.4,0.000137,0.000115,0.006924,0.000101,  84.481
   505.6,0.000150,0.000126,0.006956,0.000091,  84.485
   505.8,0.000161,0.000138,0.006973,0.000140,  84.489
   506.0,0.000173,0.000149,0.007000,0.000165,  84.490
   506.2,0.000183,0.000150,0.007011,0.000156,  84.468
   506.4,0.000184,0.000163,0.007002,0.000204,  84.441
   506.6,0.000191,0.000172,0.007064,0.000217,  84.425
   506.8,0.000199,0.000178,0.007153,0.000195,  84.424
   507.0,0.000200,0.000187,0.007245,0.000243,  84.432
   507.2,0.000211,0.000197,0.007267,0.000243,  84.435
   507.4,0.000222,0.000204,0.007263,0.000221,  84.445
   507.6,0.000232,0.000218,0.007229,0.000282,  84.442
   507.8,0.000253,0.000231,0.007265,0.000269,  84.453
   508.0,0.000276,0.000209,0.007317,0.000269,  84.458
   508.2,0.000241,0.000174,0.007394,0.000247,  84.461
   508.4,0.000195,0.000127,0.007399,0.000295,  84.466
   508.6,0.000119,0.000115,0.007372,0.000295,  84.466
   508.8,0.000102,0.000108,0.007319,0.000286,  84.470
   509.0,0.000116,0.000120,0.007241,0.000334,  84.470
   509.2,0.000140,0.000129,0.007224,0.000347,  84.457
   509.4,0.000147,0.000142,0.007209,0.000286,  84.426
   509.6,0.000171,0.000161,0.007215,0.000282,  84.402
   509.8,0.000187,0.000172,0.007256,0.000217,  84.380
   510.0,0.000194,0.000182,0.007333,0.000169,  84.383
   510.2,0.000204,0.000192,0.007432,0.000217,  84.392
   510.4,0.000212,0.000202,0.007494,0.000243,  84.396
   510.6,0.000221,0.000214,0.007556,0.000234,  84.407
   510.8,0.000237,0.000219,0.007613,0.000282,  84.420
   511.0,0.000265,0.000232,0.007433,0.000282,  84.424
   511.2,0.000148,0.000166,0.007145,0.000260,  84.427
   511.4,-0.000028,0.000064,0.006702,0.000295,  84.439
   511.6,-0.000263,-0.000062,0.006491,0.000295,  84.445
   511.8,-0.000335,-0.000141,0.006342,0.000286,  84.448
   512.0,-0.000348,-0.000206,0.006226,0.000334,  84.452
   512.2,-0.000302,-0.000259,0.006023,0.000347,  84.457
   512.4,-0.000277,-0.000257,0.005807,0.000208,  84.459
   512.6,-0.000221,-0.000215,0.005552,0.000088,  84.459
   512.8,-0.000141,-0.000139,0.005603,-0.000146,  84.438
   513.0,-0.000100,-0.000101,0.005790,-0.000221,  84.419
   513.2,-0.000052,-0.000062,0.006109,-0.000172,  84.413
   513.4,-0.000012,-0.000028,0.006264,-0.000094,  84.410
   513.6,0.000019,0.000005,0.006400,-0.000091,  84.419
   513.8,0.000045,0.000036,0.006520,-0.000003,  84.426
   514.0,0.000066,0.000061,0.006624,0.000036,  84.429
   514.2,0.000080,0.000084,0.006724,0.000039,  84.440
   514.4,0.000108,0.000113,0.006797,0.000114,  84.442
   514.6,0.000140,0.000139,0.006766,0.000140,  84.447
   514.8,0.000174,0.000089,0.006666,0.000130,  84.455
   515.0,0.000128,0.000010,0.006505,0.000191,  84.455
   515.2,0.000056,-0.000103,0.006453,0.000204,  84.460
   515.4,-0.000062,-0.000119,0.006430,0.000182,  84.464
   515.6,-0.000079,-0.000097,0.006430,0.000217,  84.471
   515.8,-0.000049,-0.000046,0.006497,0.000204,  84.473
   516.0,0.000003,-0.000021,0.006621,0.000156,  84.474
   516.2,0.000023,0.000008,0.006797,0.000152,  84.476
   516.4,0.000056,0.000041,0.006839,0.000088,  84.477
   516.6,0.000080,0.000061,0.006841,0.000065,  84.479
   516.8,0.000097,0.000085,0.006811,0.000114,  84.480
   517.0,0.000124,0.000105,0.006853,0.000127,  84.485
   517.2,0.000140,0.000117,0.006942,0.000140,  84.485
   517.4,0.000152,0.000132,0.007009,0.000117,  84.490
   517.6,0.000177,0.000153,0.007123,0.000178,  84.488
   517.8,0.000194,0.000164,0.007175,0.000191,  84.491
   518.0,0.000200,0.000172,0.007192,0.000182,  84.491
   518.2,0.000213,0.000185,0.007197,0.000208,  84.492
   518.4,0.000230,0.000194,0.007197,0.000208,  84.496
   518.6,0.000234,0.000206,0.007209,0.000185,  84.498
   518.8,0.000240,0.000209,0.007195,0.000211,  84.497
   519.0,0.000251,0.000210,0.007201,0.000234,  84.497
   519.2,0.000250,0.000214,0.007190,0.000211,  84.490
   519.4,0.000253,0.000212,0.007196,0.000224,  84.453
   519.6,0.000253,0.000214,0.007233,0.000273,  84.414
   519.8,0.000249,0.000213,0.007264,0.000250,  84.389
   520.0,0.000258,0.000215,0.007311,0.000237,  84.381
   520.2,0.000258,0.000215,0.007306,0.000273,  84.388
   520.4,0.000259,0.000221,0.007276,0.000250,  84.396
   520.6,0.000276,0.000224,0.007221,0.000250,  84.406
   520.8,0.000282,0.000230,0.007222,0.000286,  84.419
   521.0,0.000236,0.000238,0.007238,0.000263,  84.424
   521.2,0.000179,0.000247,0.007265,0.000263,  84.435
   521.4,0.000090,0.000258,0.006693,0.000286,  84.441
   521.6,-0.000029,0.000136,0.005807,0.000276,  84.445
   521.8,-0.000159,-0.000055,0.004627,0.000276,  84.452
   522.0,-0.000322,-0.000312,0.004428,0.000312,  84.458
   522.2,-0.000364,-0.000364,0.004559,0.000185,  84.462
   522.4,-0.000358,-0.000342,0.005036,0.000055,  84.463
   522.6,-0.000306,-0.000243,0.005267,-0.000117,  84.454
   522.8,-0.000209,-0.000205,0.005523,-0.000217,  84.422
   523.0,-0.000164,-0.000163,0.005837,-0.000256,  84.397
   523.2,-0.000126,-0.000108,0.006013,-0.000221,  84.371
   523.4,-0.000074,-0.000068,0.006134,-0.000230,  84.371
   523.6,-0.000041,-0.000035,0.006213,-0.000191,  84.377
   523.8,-0.000004,-0.000009,0.006312,-0.000078,  84.392
   524.0,0.000034,0.000027,0.006402,-0.000062,  84.399
   524.2,0.000064,0.000063,0.006465,-0.000036,  84.413
   524.4,0.000101,0.000093,0.006454,0.000039,  84.420
   524.6,0.000144,-0.000009,0.006401,0.000042,  84.424
   524.8,0.000009,-0.000190,0.006280,0.000068,  84.430
   525.0,-0.000209,-0.000437,0.006157,0.000117,  84.435
   525.2,-0.000506,-0.000506,0.005997,0.000107,  84.447
   525.4,-0.000568,-0.000520,0.005795,0.000133,  84.451
   525.6,-0.000542,-0.000467,0.005731,0.000169,  84.455
   525.8,-0.000430,-0.000427,0.005740,0.000104,  84.459
   526.0,-0.000384,-0.000366,0.005782,0.000013,  84.464
   526.2,-0.000319,-0.000279,0.005882,-0.000152,  84.463
   526.4,-0.000238,-0.000220,0.005986,-0.000285,  84.468
   526.6,-0.000180,-0.000172,0.006122,-0.000321,  84.474
   526.8,-0.000130,-0.000126,0.006283,-0.000295,  84.472
   527.0,-0.000083,-0.000088,0.006331,-0.000182,  84.476
   527.2,-0.000038,-0.000055,0.006344,-0.000165,  84.478
   527.4,-0.000002,-0.000018,0.006332,-0.000127,  84.482
   527.6,0.000030,0.000011,0.006396,-0.000052,  84.478
   527.8,0.000061,0.000034,0.006455,-0.000049,  84.485
   528.0,0.000090,0.000063,0.006539,-0.000010,  84.488
   528.2,0.000114,0.000082,0.006658,0.000052,  84.489
   528.4,0.000135,0.000100,0.006798,0.000068,  84.492
   528.6,0.000151,0.000107,0.006953,0.000081,  84.490
   528.8,0.000164,0.000122,0.006975,0.000130,  84.495
   529.0,0.000177,0.000133,0.006910,0.000133,  84.499
   529.2,0.000182,0.000139,0.006789,0.000146,  84.490
   529.4,0.000187,0.000150,0.006827,0.000195,  84.497
   529.6,0.000195,0.000156,0.006889,0.000172,  84.501
   529.8,0.000200,0.000164,0.006991,0.000185,  84.496
   530.0,0.000203,0.000168,0.007054,0.000221,  84.494
   530.2,0.000211,0.000173,0.007117,0.000198,  84.498
   530.4,0.000216,0.000177,0.007185,0.000198,  84.494
   530.6,0.000219,0.000181,0.007268,0.000247,  84.495
   530.8,0.000227,0.000187,0.007334,0.000224,  84.497
   531.0,0.000240,0.000192,0.007418,0.000224,  84.498
   531.2,0.000250,0.000206,0.007449,0.000260,  84.495
   531.4,0.000263,0.000217,0.007461,0.000237,  84.501
   531.6,0.000270,0.000233,0.007426,0.000237,  84.499
   531.8,0.000287,0.000255,0.007473,0.000273,  84.499
   532.0,0.000300,0.000265,0.007535,0.000250,  84.501
   532.2,0.000308,0.000267,0.007618,0.000250,  84.504
   532.4,0.000308,0.000266,0.007489,0.000299,  84.504
   532.6,0.000305,0.000265,0.007247,0.000276,  84.501
   532.8,0.000305,0.000262,0.006912,0.000289,  84.504
   533.0,0.000300,0.000256,0.006891,0.000325,  84.500
   533.2,0.000292,0.000252,0.006985,0.000302,  84.491
   533.4,0.000290,0.000246,0.007181,0.000315,  84.489
   533.6,0.000290,0.000243,0.007289,0.000325,  84.483
   533.8,0.000284,0.000242,0.007413,0.000289,  84.490
   534.0,0.000287,0.000242,0.007542,0.000302,  84.488
   534.2,0.000290,0.000246,0.007599,0.000325,  84.489
   534.4,0.000295,0.000256,0.007605,0.000289,  84.496
   534.6,0.000308,0.000268,0.007576,0.000302,  84.495
   534.8,0.000326,0.000284,0.007597,0.000325,  84.497
   535.0,0.000345,0.000296,0.007648,0.000325,  84.497
   535.2,0.000353,0.000303,0.007674,0.000325,  84.499
   535.4,0.000353,0.000307,0.007736,0.000289,  84.505
   535.6,0.000347,0.000312,0.007752,0.000325,  84.505
   535.8,0.000345,0.000306,0.007747,0.000302,  84.506
   536.0,0.000337,0.000292,0.007742,0.000302,  84.504
   536.2,0.000329,0.000283,0.007763,0.000363,  84.504
   536.4,0.000324,0.000274,0.007757,0.000341,  84.495
   536.6,0.000316,0.000271,0.007768,0.000328,  84.494
   536.8,0.000308,0.000267,0.007757,0.000363,  84.489
   537.0,0.000299,0.000260,0.007736,0.000328,  84.490
   537.2,0.000296,0.000256,0.007706,0.000328,  84.489
   537.4,0.000291,0.000257,0.007695,0.000351,  84.492
   537.6,0.000296,0.000254,0.007689,0.000315,  84.496
   537.8,0.000307,0.000258,0.007695,0.000315,  84.495
   538.0,0.000321,0.000267,0.007712,0.000325,  84.500
   538.2,0.000338,0.000278,0.007733,0.000289,  84.496
   538.4,0.000346,0.000288,0.007755,0.000302,  84.503
   538.6,0.000347,0.000305,0.007817,0.000325,  84.502
   538.8,0.000347,0.000309,0.007895,0.000289,  84.506
   539.0,0.000342,0.000303,0.007981,0.000302,  84.502
   539.2,0.000334,0.000293,0.007977,0.000338,  84.506
   539.4,0.000330,0.000287,0.007910,0.000315,  84.506
   539.6,0.000321,0.000274,0.007791,0.000315,  84.505
   539.8,0.000322,0.000269,0.007781,0.000363,  84.505
   540.0,0.000310,0.000263,0.007807,0.000328,  84.507
   540.2,0.000304,0.000253,0.007858,0.000328,  84.511
   540.4,0.000300,0.000249,0.007558,0.000351,  84.511
   540.6,0.000294,0.000248,0.007115,0.000315,  84.510
   540.8,0.000294,0.000243,0.006517,0.000351,  84.509
   541.0,0.000296,0.000249,0.006513,0.000360,  84.508
   541.2,0.000303,0.000251,0.006709,0.000325,  84.510
   541.4,0.000308,0.000251,0.007101,0.000373,  84.514
   541.6,0.000307,0.000261,0.007265,0.000360,  84.513
   541.8,0.000312,0.000263,0.007420,0.000325,  84.514
   542.0,0.000308,0.000267,0.007555,0.000373,  84.514
   542.2,0.000305,0.000274,0.007658,0.000360,  84.515
   542.4,0.000305,0.000274,0.007735,0.000325,  84.516
   542.6,0.000305,0.000272,0.007791,0.000373,  84.511
   542.8,0.000300,0.000266,0.007817,0.000373,  84.506
   543.0,0.000295,0.000262,0.007812,0.000338,  84.505
   543.2,0.000292,0.000258,0.007771,0.000373,  84.494
   543.4,0.000290,0.000257,0.007812,0.000396,  84.487
   543.6,0.000287,0.000255,0.007864,0.000360,  84.485
   543.8,0.000284,0.000254,0.007958,0.000373,  84.482
   544.0,0.000284,0.000252,0.008005,0.000396,  84.489
   544.2,0.000284,0.000255,0.008014,0.000396,  84.492
   544.4,0.000298,0.000267,0.008052,0.000360,  84.493
   544.6,0.000311,0.000277,0.008041,0.000360,  84.495
   544.8,0.000333,0.000291,0.008058,0.000360,  84.499
   545.0,0.000340,0.000303,0.008053,0.000325,  84.500
   545.2,0.000350,0.000322,0.008054,0.000360,  84.499
   545.4,0.000355,0.000321,0.008069,0.000360,  84.499
   545.6,0.000358,0.000318,0.008095,0.000338,  84.502
   545.8,0.000353,0.000310,0.008142,0.000386,  84.499
   546.0,0.000342,0.000307,0.008183,0.000399,  84.504
   546.2,0.000337,0.000299,0.008224,0.000376,  84.499
   546.4,0.000329,0.000290,0.008259,0.000399,  84.490
   546.6,0.000319,0.000285,0.008244,0.000399,  84.479
   546.8,0.000313,0.000276,0.008177,0.000363,  84.469
   547.0,0.000308,0.000271,0.008101,0.000399,  84.469
   547.2,0.000305,0.000271,0.007972,0.000386,  84.472
   547.4,0.000308,0.000265,0.007790,0.000351,  84.473
   547.6,0.000313,0.000269,0.007578,0.000373,  84.475
   547.8,0.000321,0.000270,0.007578,0.000347,  84.477
   548.0,0.000334,0.000280,0.007666,0.000312,  84.478
   548.2,0.000347,0.000298,0.007837,0.000312,  84.478
   548.4,0.000361,0.000319,0.007920,0.000312,  84.487
   548.6,0.000361,0.000326,0.008004,0.000276,  84.489
   548.8,0.000355,0.000324,0.008055,0.000302,  84.490
   549.0,0.000342,0.000309,0.008117,0.000351,  84.492
   549.2,0.000337,0.000305,0.008148,0.000315,  84.494
   549.4,0.000332,0.000299,0.008178,0.000328,  84.492
   549.6,0.000326,0.000298,0.008168,0.000351,  84.498
   549.8,0.000321,0.000287,0.008106,0.000315,  84.496
   550.0,0.000312,0.000278,0.008024,0.000328,  84.500
   550.2,0.000313,0.000274,0.008028,0.000351,  84.498
   550.4,0.000308,0.000271,0.008065,0.000315,  84.499
   550.6,0.000308,0.000267,0.008131,0.000351,  84.499
   550.8,0.000305,0.000266,0.008141,0.000373,  84.500
   551.0,0.000305,0.000268,0.008147,0.000338,  84.502
   551.2,0.000308,0.000271,0.008142,0.000360,  84.505
   551.4,0.000308,0.000270,0.008188,0.000347,  84.506
   551.6,0.000308,0.000270,0.008261,0.000312,  84.504
   551.8,0.000313,0.000273,0.008332,0.000325,  84.507
   552.0,0.000313,0.000279,0.008358,0.000325,  84.506
   552.2,0.000313,0.000274,0.008358,0.000289,  84.502
   552.4,0.000313,0.000274,0.008338,0.000302,  84.508
   552.6,0.000311,0.000269,0.008333,0.000325,  84.509
   552.8,0.000303,0.000267,0.008308,0.000325,  84.509
   553.0,0.000300,0.000259,0.008266,0.000325,  84.507
   553.2,0.000298,0.000259,0.008256,0.000289,  84.502
   553.4,0.000295,0.000256,0.008266,0.000325,  84.492
   553.6,0.000295,0.000255,0.008282,0.000289,  84.477
   553.8,0.000295,0.000252,0.008303,0.000289,  84.482
   554.0,0.000295,0.000251,0.008277,0.000325,  84.484
   554.2,0.000298,0.000255,0.008257,0.000289,  84.485
   554.4,0.000303,0.000262,0.008200,0.000302,  84.490
   554.6,0.000311,0.000274,0.008195,0.000325,  84.491
   554.8,0.000326,0.000288,0.008184,0.000289,  84.493
   555.0,0.000347,0.000303,0.008211,0.000289,  84.497
   555.2,0.000376,0.000322,0.008222,0.000312,  84.500
   555.4,0.000387,0.000327,0.008222,0.000276,  84.494
   555.6,0.000387,0.000329,0.008234,0.000289,  84.500
   555.8,0.000379,0.000331,0.008281,0.000325,  84.503
   556.0,0.000373,0.000326,0.008326,0.000302,  84.505
   556.2,0.000365,0.000324,0.008389,0.000315,  84.501
   556.4,0.000354,0.000321,0.008389,0.000363,  84.493
   556.6,0.000349,0.000312,0.008347,0.000341,  84.485
   556.8,0.000341,0.000304,0.008270,0.000328,  84.478
   557.0,0.000337,0.000299,0.008249,0.000363,  84.476
   557.2,0.000338,0.000293,0.008234,0.000328,  84.475
   557.4,0.000336,0.000288,0.008218,0.000328,  84.475
   557.6,0.000329,0.000290,0.008255,0.000351,  84.479
   557.8,0.000332,0.000294,0.008311,0.000315,  84.485
   558.0,0.000333,0.000299,0.008399,0.000315,  84.489
   558.2,0.000350,0.000318,0.008451,0.000325,  84.488
   558.4,0.000363,0.000320,0.008487,0.000289,  84.491
   558.6,0.000370,0.000313,0.008524,0.000302,  84.496
   558.8,0.000368,0.000310,0.008513,0.000338,  84.500
   559.0,0.000359,0.000308,0.008461,0.000315,  84.499
   559.2,0.000347,0.000304,0.008390,0.000351,  84.499
   559.4,0.000347,0.000303,0.008136,0.000399,  84.504
   559.6,0.000345,0.000299,0.007753,0.000363,  84.497
   559.8,0.000336,0.000291,0.007273,0.000399,  84.492
   560.0,0.000333,0.000285,0.007025,0.000386,  84.492
   560.2,0.000321,0.000281,0.006824,0.000351,  84.479
   560.4,0.000312,0.000275,0.006680,0.000386,  84.480
   560.6,0.000310,0.000271,0.006767,0.000373,  84.491
   560.8,0.000304,0.000273,0.006984,0.000338,  84.494
   561.0,0.000300,0.000275,0.007345,0.000373,  84.497
   561.2,0.000308,0.000279,0.007536,0.000360,  84.497
   561.4,0.000325,0.000295,0.007722,0.000325,  84.498
   561.6,0.000341,0.000310,0.007887,0.000373,  84.491
   561.8,0.000357,0.000333,0.008001,0.000360,  84.493
   562.0,0.000373,0.000343,0.008095,0.000360,  84.499
   562.2,0.000380,0.000336,0.008126,0.000325,  84.499
   562.4,0.000378,0.000334,0.008142,0.000373,  84.500
   562.6,0.000367,0.000330,0.008163,0.000373,  84.505
   562.8,0.000365,0.000320,0.008148,0.000351,  84.501
   563.0,0.000357,0.000316,0.008117,0.000386,  84.505
   563.2,0.000344,0.000309,0.008163,0.000399,  84.507
   563.4,0.000338,0.000297,0.008245,0.000363,  84.507
   563.6,0.000333,0.000291,0.008343,0.000386,  84.505
   563.8,0.000325,0.000283,0.008399,0.000373,  84.506
   564.0,0.000325,0.000283,0.008461,0.000338,  84.507
   564.2,0.000320,0.000274,0.008492,0.000373,  84.506
   564.4,0.000317,0.000277,0.008544,0.000396,  84.506
   564.6,0.000320,0.000279,0.008606,0.000360,  84.512
   564.8,0.000316,0.000288,0.008653,0.000373,  84.515
   565.0,0.000319,0.000293,0.008103,0.000396,  84.515
   565.2,0.000321,0.000295,0.007271,0.000360,  84.520
   565.4,0.000321,0.000299,0.006128,0.000360,  84.514
   565.6,0.000325,0.000296,0.006086,0.000383,  84.508
   565.8,0.000329,0.000289,0.006472,0.000347,  84.510
   566.0,0.000321,0.000282,0.007246,0.000360,  84.512
   566.2,0.000311,0.000280,0.007483,0.000360,  84.508
   566.4,0.000312,0.000273,0.007659,0.000325,  84.507
   566.6,0.000309,0.000266,0.007768,0.000360,  84.494
   566.8,0.000304,0.000266,0.007912,0.000347,  84.480
   567.0,0.000298,0.000263,0.008062,0.000312,  84.475
   567.2,0.000298,0.000261,0.008197,0.000347,  84.479
   567.4,0.000299,0.000256,0.008285,0.000347,  84.477
   567.6,0.000304,0.000258,0.008347,0.000299,  84.478
   567.8,0.000305,0.000266,0.008358,0.000334,  84.487
   568.0,0.000322,0.000274,0.008136,0.000334,  84.490
   568.2,0.000329,0.000290,0.007764,0.000286,  84.484
   568.4,0.000342,0.000303,0.007249,0.000321,  84.488
   568.6,0.000353,0.000324,0.007269,0.000334,  84.493
   568.8,0.000363,0.000328,0.007502,0.000312,  84.498
   569.0,0.000366,0.000318,0.007920,0.000360,  84.499
   569.2,0.000366,0.000310,0.008065,0.000373,  84.499
   569.4,0.000355,0.000307,0.008168,0.000351,  84.499
   569.6,0.000353,0.000300,0.008241,0.000386,  84.502
   569.8,0.000345,0.000297,0.007842,0.000373,  84.491
   570.0,0.000337,0.000294,0.007175,0.000338,  84.477
   570.2,0.000332,0.000287,0.006259,0.000373,  84.471
   570.4,0.000326,0.000278,0.006248,0.000360,  84.466
   570.6,0.000319,0.000275,0.006547,0.000325,  84.470
   570.8,0.000316,0.000270,0.007160,0.000360,  84.476
   571.0,0.000316,0.000273,0.007387,0.000347,  84.474
   571.2,0.000325,0.000282,0.007600,0.000347,  84.481
   571.4,0.000329,0.000295,0.007750,0.000299,  84.480
   571.6,0.000347,0.000314,0.007896,0.000347,  84.485
   571.8,0.000368,0.000310,0.007993,0.000334,  84.486
   572.0,0.000368,0.000307,0.008082,0.000299,  84.490
   572.2,0.000361,0.000292,0.008123,0.000334,  84.492
   572.4,0.000340,0.000284,0.008221,0.000347,  84.490
   572.6,0.000332,0.000283,0.008309,0.000325,  84.498
   572.8,0.000329,0.000284,0.008401,0.000373,  84.498
   573.0,0.000321,0.000276,0.008443,0.000373,  84.500
   573.2,0.000310,0.000274,0.008447,0.000338,  84.500
   573.4,0.000302,0.000269,0.008443,0.000373,  84.504
   573.6,0.000294,0.000266,0.008473,0.000360,  84.504
   573.8,0.000291,0.000260,0.008508,0.000312,  84.506
   574.0,0.000286,0.000259,0.008560,0.000347,  84.510
   574.2,0.000290,0.000258,0.008171,0.000334,  84.511
   574.4,0.000296,0.000251,0.007571,0.000286,  84.512
   574.6,0.000299,0.000258,0.006778,0.000308,  84.508
   574.8,0.000295,0.000258,0.006789,0.000308,  84.510
   575.0,0.000298,0.000255,0.007082,0.000286,  84.516
   575.2,0.000298,0.000261,0.007671,0.000308,  84.513
   575.4,0.000307,0.000262,0.007882,0.000308,  84.512
   575.6,0.000300,0.000262,0.008068,0.000286,  84.515
   575.8,0.000298,0.000262,0.008197,0.000308,  84.513
   576.0,0.000299,0.000260,0.008264,0.000308,  84.515
   576.2,0.000290,0.000255,0.008285,0.000286,  84.516
   576.4,0.000287,0.000254,0.008250,0.000308,  84.511
   576.6,0.000288,0.000248,0.008308,0.000308,  84.512
   576.8,0.000286,0.000242,0.008374,0.000286,  84.489
   577.0,0.000288,0.000243,0.008457,0.000308,  84.483
   577.2,0.000286,0.000245,0.008514,0.000308,  84.480
   577.4,0.000286,0.000243,0.008551,0.000286,  84.482
   577.6,0.000288,0.000247,0.008555,0.000308,  84.485
   577.8,0.000294,0.000248,0.008592,0.000308,  84.485
   578.0,0.000290,0.000258,0.008613,0.000286,  84.490
   578.2,0.000305,0.000273,0.008629,0.000308,  84.495
   578.4,0.000329,0.000292,0.008676,0.000295,  84.496
   578.6,0.000355,0.000299,0.008713,0.000273,  84.496
   578.8,0.000363,0.000305,0.008749,0.000308,  84.497
   579.0,0.000363,0.000307,0.008454,0.000331,  84.504
   579.2,0.000358,0.000307,0.007984,0.000321,  84.507
   579.4,0.000355,0.000304,0.007338,0.000347,  84.504
   579.6,0.000353,0.000304,0.007302,0.000409,  84.503
   579.8,0.000345,0.000297,0.007488,0.000386,  84.495
   580.0,0.000342,0.000290,0.007891,0.000386,  84.483
   580.2,0.000337,0.000289,0.008005,0.000409,  84.465
   580.4,0.000326,0.000287,0.008093,0.000409,  84.460
   580.6,0.000324,0.000280,0.008149,0.000373,  84.465
   580.8,0.000319,0.000278,0.008170,0.000396,  84.462
   581.0,0.000313,0.000282,0.008248,0.000383,  84.466
   581.2,0.000321,0.000286,0.008325,0.000347,  84.475
   581.4,0.000332,0.000296,0.008392,0.000347,  84.479
   581.6,0.000347,0.000288,0.008491,0.000370,  84.478
   581.8,0.000332,0.000274,0.008578,0.000321,  84.478
   582.0,0.000303,0.000255,0.008687,0.000321,  84.481
   582.2,0.000270,0.000248,0.008578,0.000370,  84.488
   582.4,0.000253,0.000246,0.008370,0.000347,  84.491
   582.6,0.000259,0.000239,0.008054,0.000373,  84.493
   582.8,0.000276,0.000241,0.008007,0.000422,  84.490
   583.0,0.000273,0.000234,0.008048,0.000386,  84.489
   583.2,0.000275,0.000237,0.008178,0.000360,  84.495
   583.4,0.000278,0.000244,0.008261,0.000344,  84.482
   583.6,0.000277,0.000244,0.008379,0.000308,  84.478
   583.8,0.000277,0.000246,0.008513,0.000295,  84.471
   584.0,0.000277,0.000244,0.008569,0.000344,  84.471
   584.2,0.000282,0.000245,0.008595,0.000321,  84.477
   584.4,0.000287,0.000246,0.008580,0.000308,  84.482
   584.6,0.000299,0.000254,0.008575,0.000344,  84.485
   584.8,0.000307,0.000265,0.008555,0.000321,  84.484
   585.0,0.000330,0.000279,0.008520,0.000308,  84.486
   585.2,0.000357,0.000298,0.008531,0.000344,  84.491
   585.4,0.000353,0.000295,0.008573,0.000321,  84.494
   585.6,0.000351,0.000296,0.008620,0.000321,  84.496
   585.8,0.000339,0.000285,0.008650,0.000357,  84.499
   586.0,0.000336,0.000278,0.008676,0.000347,  84.501
   586.2,0.000333,0.000277,0.008702,0.000347,  84.500
   586.4,0.000330,0.000275,0.008687,0.000383,  84.501
   586.6,0.000330,0.000263,0.008646,0.000360,  84.507
   586.8,0.000321,0.000261,0.008589,0.000360,  84.503
   587.0,0.000318,0.000257,0.008547,0.000383,  84.506
   587.2,0.000313,0.000254,0.008527,0.000334,  84.508
   587.4,0.000307,0.000250,0.008512,0.000334,  84.508
   587.6,0.000304,0.000250,0.008547,0.000370,  84.507
   587.8,0.000299,0.000252,0.008619,0.000321,  84.511
   588.0,0.000295,0.000254,0.008727,0.000321,  84.511
   588.2,0.000298,0.000254,0.008721,0.000370,  84.509
   588.4,0.000307,0.000255,0.008696,0.000334,  84.514
   588.6,0.000305,0.000256,0.008620,0.000321,  84.514
   588.8,0.000308,0.000271,0.008605,0.000331,  84.512
   589.0,0.000313,0.000273,0.008589,0.000308,  84.510
   589.2,0.000311,0.000268,0.008574,0.000308,  84.514
   589.4,0.000308,0.000269,0.008559,0.000344,  84.515
   589.6,0.000304,0.000271,0.008548,0.000357,  84.520
   589.8,0.000295,0.000259,0.008542,0.000321,  84.513
   590.0,0.000295,0.000255,0.008532,0.000370,  84.499
   590.2,0.000299,0.000253,0.008567,0.000370,  84.483
   590.4,0.000292,0.000249,0.008628,0.000347,  84.473
   590.6,0.000292,0.000248,0.008716,0.000347,  84.469
   590.8,0.000290,0.000251,0.008716,0.000370,  84.472
   591.0,0.000295,0.000254,0.008681,0.000334,  84.474
   591.2,0.000303,0.000263,0.008605,0.000334,  84.477
   591.4,0.000313,0.000273,0.008610,0.000370,  84.487
   591.6,0.000326,0.000291,0.008637,0.000334,  84.487
   591.8,0.000342,0.000306,0.008669,0.000334,  84.491
   592.0,0.000361,0.000330,0.008704,0.000370,  84.488
   592.2,0.000358,0.000323,0.008746,0.000347,  84.497
   592.4,0.000345,0.000311,0.008813,0.000360,  84.496
   592.6,0.000324,0.000289,0.008802,0.000396,  84.501
   592.8,0.000319,0.000282,0.008740,0.000373,  84.503
   593.0,0.000313,0.000276,0.008657,0.000373,  84.500
   593.2,0.000320,0.000278,0.008668,0.000383,  84.498
   593.4,0.000311,0.000276,0.008688,0.000334,  84.480
   593.6,0.000308,0.000270,0.008740,0.000334,  84.463
   593.8,0.000309,0.000265,0.008760,0.000370,  84.459
   594.0,0.000303,0.000263,0.008764,0.000321,  84.459
   594.2,0.000300,0.000258,0.008760,0.000321,  84.464
   594.4,0.000307,0.000261,0.008786,0.000357,  84.468
   594.6,0.000313,0.000271,0.008822,0.000334,  84.473
   594.8,0.000329,0.000275,0.008848,0.000334,  84.472
   595.0,0.000357,0.000291,0.008874,0.000357,  84.477
   595.2,0.000349,0.000279,0.008889,0.000334,  84.485
   595.4,0.000330,0.000251,0.008910,0.000321,  84.487
   595.6,0.000299,0.000215,0.008868,0.000344,  84.492
   595.8,0.000257,0.000202,0.008789,0.000334,  84.497
   596.0,0.000252,0.000204,0.008696,0.000347,  84.495
   596.2,0.000249,0.000207,0.008639,0.000360,  84.499
   596.4,0.000257,0.000207,0.008598,0.000325,  84.498
   596.6,0.000253,0.000212,0.008567,0.000347,  84.501
   596.8,0.000258,0.000219,0.008541,0.000295,  84.503
   597.0,0.000261,0.000221,0.008511,0.000260,  84.506
   597.2,0.000263,0.000219,0.008480,0.000295,  84.508
   597.4,0.000263,0.000227,0.008532,0.000295,  84.506
   597.6,0.000261,0.000231,0.008599,0.000273,  84.504
   597.8,0.000266,0.000229,0.008696,0.000308,  84.505
   598.0,0.000271,0.000237,0.008716,0.000295,  84.510
   598.2,0.000280,0.000241,0.008722,0.000295,  84.513
   598.4,0.000279,0.000240,0.008692,0.000260,  84.515
   598.6,0.000284,0.000247,0.008670,0.000308,  84.513
   598.8,0.000291,0.000252,0.008666,0.000295,  84.518
   599.0,0.000287,0.000250,0.008625,0.000273,  84.521
   599.2,0.000284,0.000255,0.008594,0.000295,  84.517
   599.4,0.000288,0.000253,0.008609,0.000318,  84.517
   599.6,0.000282,0.000251,0.008635,0.000295,  84.518
   599.8,0.000277,0.000247,0.008682,0.000295,  84.519
   600.0,0.000278,0.000240,0.008661,0.000331,  84.513
   600.2,0.000271,0.000241,0.008636,0.000308,  84.498
   600.4,0.000271,0.000242,0.008586,0.000308,  84.485
   600.6,0.000275,0.000242,0.008616,0.000331,  84.477
   600.8,0.000269,0.000239,0.008668,0.000308,  84.475
   601.0,0.000274,0.000243,0.008755,0.000308,  84.469
   601.2,0.000280,0.000242,0.008723,0.000331,  84.477
   601.4,0.000287,0.000250,0.008656,0.000308,  84.483
   601.6,0.000315,0.000263,0.008538,0.000295,  84.486
   601.8,0.000345,0.000281,0.008568,0.000318,  84.490
   602.0,0.000343,0.000289,0.008673,0.000295,  84.490
   602.2,0.000345,0.000294,0.008840,0.000295,  84.495
   602.4,0.000329,0.000299,0.008819,0.000344,  84.499
   602.6,0.000322,0.000301,0.008768,0.000334,  84.498
   602.8,0.000329,0.000301,0.008649,0.000360,  84.503
   603.0,0.000326,0.000294,0.008639,0.000422,  84.501
   603.2,0.000321,0.000294,0.008660,0.000386,  84.497
   603.4,0.000329,0.000290,0.008690,0.000373,  84.482
   603.6,0.000334,0.000288,0.008695,0.000334,  84.468
   603.8,0.000337,0.000282,0.008706,0.000286,  84.461
   604.0,0.000331,0.000282,0.008716,0.000321,  84.464
   604.2,0.000327,0.000278,0.008731,0.000321,  84.462
   604.4,0.000321,0.000280,0.008731,0.000299,  84.468
   604.6,0.000318,0.000286,0.008737,0.000334,  84.473
   604.8,0.000326,0.000293,0.008753,0.000321,  84.479
   605.0,0.000337,0.000294,0.008784,0.000299,  84.483
   605.2,0.000325,0.000302,0.008822,0.000334,  84.481
   605.4,0.000313,0.000303,0.008826,0.000321,  84.487
   605.6,0.000289,0.000289,0.008820,0.000312,  84.491
   605.8,0.000275,0.000271,0.008797,0.000360,  84.487
   606.0,0.000265,0.000244,0.008766,0.000373,  84.495
   606.2,0.000259,0.000235,0.008703,0.000338,  84.500
   606.4,0.000253,0.000232,0.008636,0.000347,  84.495
   606.6,0.000256,0.000245,0.008615,0.000295,  84.500
   606.8,0.000270,0.000247,0.008615,0.000260,  84.483
   607.0,0.000266,0.000244,0.008620,0.000260,  84.474
   607.2,0.000269,0.000246,0.008615,0.000260,  84.466
   607.4,0.000275,0.000250,0.008599,0.000260,  84.467
   607.6,0.000274,0.000252,0.008600,0.000224,  84.469
   607.8,0.000282,0.000254,0.008585,0.000237,  84.472
   608.0,0.000291,0.000265,0.008565,0.000260,  84.482
   608.2,0.000298,0.000277,0.008524,0.000237,  84.480
