Run Name,acetone check_02 19 2014
Run Date,11:42:16 PM   02-19-14
Method Name,50%B-Isocratic.3
Export Format Version, 1.00
Method ID, 1788
Points/Second, 5.00
Number of Records,   3021
Offset from Run Start Time,00:00:00
Run End Time,00:10:06
Time,Second
QuadTec 1, (280.0 nm), AU
QuadTec 2, (260.0 nm), AU
Gradient Pump,<Not Selected>
QuadTec 3, (214.0 nm), AU
QuadTec 4, (405.0 nm), AU
Conductivity,mS/cm
Trace 6,<Not Available>
GP Pressure,<Not Selected>
Volume,<Not Selected>
Fraction,<Not Available>
Time,QuadTec 1,QuadTec 2,QuadTec 3,QuadTec 4,Conductivity
     0.0,-0.785463,-0.365263,0.245921,-0.430084,  49.896
     0.2,-0.785460,-0.365257,0.246120,-0.430106,  49.900
     0.4,-0.785458,-0.365254,0.246271,-0.430106,  49.903
     0.6,-0.785463,-0.365251,0.246370,-0.430071,  49.901
     0.8,-0.785460,-0.365248,0.246465,-0.430093,  49.904
     1.0,-0.785460,-0.365246,0.246511,-0.430106,  49.903
     1.2,-0.785460,-0.365250,0.246521,-0.430071,  49.909
     1.4,-0.785460,-0.365255,0.246471,-0.430093,  49.907
     1.6,-0.785455,-0.365253,0.246351,-0.430106,  49.909
     1.8,-0.785455,-0.365249,0.246182,-0.430071,  49.907
     2.0,-0.785458,-0.365248,0.246230,-0.430093,  49.909
     2.2,-0.785455,-0.365253,0.246385,-0.430106,  49.911
     2.4,-0.785455,0.000000,0.246625,-0.430071,  49.906
     2.6,-0.785455,0.000000,0.246689,-0.430093,  49.911
     2.8,-0.785452,0.000000,0.246720,-0.430093,  49.913
     3.0,-0.785455,0.000000,0.246721,-0.430058,  49.913
     3.2,-0.785455,0.000000,0.246757,-0.430058,  49.913
     3.4,-0.785452,0.000000,0.246782,-0.430058,  49.912
     3.6,-0.785455,0.000000,0.247754,-0.430093,  49.915
     3.8,-0.784683,0.000000,0.247754,0.000000,  49.914
     4.0,-0.784670,0.000000,0.247754,0.000000,  49.917
     4.2,-0.784670,0.000000,0.247754,0.000000,  49.914
     4.4,-0.784614,0.000000,0.000000,0.000000,  49.911
     4.6,0.000000,0.000000,0.000000,0.000000,  49.918
     4.8,0.000000,0.000000,0.000000,0.000000,  49.915
     5.0,0.000000,0.000000,0.000000,0.000000,  49.920
     5.2,0.000000,0.000000,0.000000,0.000000,  49.921
     5.4,0.000000,0.000000,0.000000,0.000000,  49.926
     5.6,0.000000,0.000000,0.000000,0.000000,  49.926
     5.8,0.000000,0.000000,0.000000,0.000000,  49.928
     6.0,0.000000,0.000000,0.000000,0.000000,  49.932
     6.2,0.000000,0.000000,0.000000,0.000000,  49.933
     6.4,0.000000,0.000000,0.000000,0.000000,  49.931
     6.6,0.000000,0.000000,0.000000,0.000000,  49.939
     6.8,0.000000,0.000000,0.000000,0.000000,  49.943
     7.0,0.000000,-0.000014,0.000000,0.000000,  49.949
     7.2,0.000000,-0.000016,0.000000,0.000000,  49.946
     7.4,0.000000,-0.000018,0.000000,0.000000,  49.948
     7.6,0.000000,-0.000012,0.000000,0.000000,  49.955
     7.8,0.000000,-0.000012,0.000000,0.000000,  49.951
     8.0,0.000000,-0.000018,0.000000,0.000000,  49.958
     8.2,0.000000,-0.000016,0.000000,0.000000,  49.959
     8.4,0.000000,-0.000021,-0.000025,0.000000,  49.963
     8.6,0.000003,-0.000016,-0.000060,0.000000,  49.961
     8.8,0.000003,-0.000014,-0.000100,0.000000,  49.966
     9.0,0.000003,-0.000014,-0.000130,-0.000022,  49.971
     9.2,0.000000,-0.000016,-0.000185,-0.000044,  49.989
     9.4,0.000003,-0.000014,-0.000240,-0.000022,  49.991
     9.6,0.000003,-0.000014,-0.000280,-0.000044,  49.992
     9.8,0.000000,-0.000014,-0.000314,-0.000009,  49.992
    10.0,0.000003,-0.000014,-0.000348,-0.000022,  49.994
    10.2,0.000003,-0.000009,-0.000358,-0.000044,  49.993
    10.4,0.000000,-0.000012,-0.000348,-0.000009,  50.001
    10.6,0.000003,-0.000010,-0.000339,-0.000009,  49.997
    10.8,0.000005,-0.000005,-0.000359,-0.000031,  50.001
    11.0,0.000005,-0.000004,-0.000389,0.000004,  50.001
    11.2,0.000011,-0.000001,-0.000449,0.000004,  50.004
    11.4,0.000011,0.000001,-0.000514,-0.000018,  50.007
    11.6,0.000011,0.000000,-0.000603,0.000004,  50.009
    11.8,0.000013,0.000004,-0.000692,-0.000022,  50.008
    12.0,0.000013,0.000006,-0.001047,-0.000044,  50.014
    12.2,0.000011,0.000008,-0.001537,-0.000009,  50.013
    12.4,0.000013,0.000006,-0.002176,-0.000009,  50.012
    12.6,0.000016,0.000009,-0.002118,-0.000031,  50.014
    12.8,0.000021,0.000019,-0.001774,-0.000031,  50.014
    13.0,0.000021,0.000021,-0.001166,-0.000031,  50.015
    13.2,0.000017,0.000023,-0.000956,-0.000053,  50.009
    13.4,0.000017,0.000024,-0.000825,-0.000018,  50.013
    13.6,0.000024,0.000029,-0.000769,0.000004,  50.015
    13.8,0.000027,0.000030,-0.000674,-0.000018,  50.012
    14.0,0.000029,0.000025,-0.000598,0.000017,  50.012
    14.2,0.000040,0.000032,-0.000552,0.000004,  50.015
    14.4,0.000036,0.000030,-0.000462,-0.000018,  50.013
    14.6,0.000038,0.000026,-0.000352,0.000017,  50.014
    14.8,0.000048,0.000031,-0.000242,0.000017,  50.017
    15.0,0.000050,0.000030,-0.000214,-0.000018,  50.018
    15.2,0.000052,0.000026,-0.000215,0.000017,  50.015
    15.4,0.000056,0.000028,-0.000247,0.000017,  50.015
    15.6,0.000052,0.000025,-0.000243,0.000017,  50.016
    15.8,0.000055,0.000020,-0.000231,-0.000005,  50.016
    16.0,0.000052,0.000023,-0.000203,-0.000018,  50.012
    16.2,0.000046,0.000019,-0.000173,-0.000018,  50.014
    16.4,0.000043,0.000015,-0.000133,-0.000018,  50.019
    16.6,0.000041,0.000019,-0.000083,-0.000005,  50.017
    16.8,0.000032,0.000019,-0.000034,-0.000005,  50.017
    17.0,0.000032,0.000017,-0.000049,-0.000027,  50.014
    17.2,0.000035,0.000018,-0.000072,-0.000027,  50.013
    17.4,0.000029,0.000021,-0.000121,-0.000005,  50.013
    17.6,0.000029,0.000019,-0.000071,-0.000040,  50.010
    17.8,0.000035,0.000015,0.000014,-0.000040,  50.010
    18.0,0.000033,0.000022,0.000123,-0.000005,  50.006
    18.2,0.000035,0.000020,0.000134,-0.000040,  50.003
    18.4,0.000041,0.000024,0.000114,-0.000040,  50.010
    18.6,0.000037,0.000023,0.000039,-0.000005,  50.005
    18.8,0.000040,0.000020,0.000029,-0.000053,  50.009
    19.0,0.000039,0.000024,0.000050,-0.000053,  50.003
    19.2,0.000038,0.000022,0.000075,-0.000031,  50.007
    19.4,0.000040,0.000022,-0.000081,-0.000066,  50.006
    19.6,0.000040,0.000019,-0.000317,-0.000066,  50.005
    19.8,0.000036,0.000021,-0.000642,-0.000031,  50.006
    20.0,0.000036,0.000019,-0.000642,-0.000053,  50.005
    20.2,0.000036,0.000019,-0.000517,-0.000053,  50.003
    20.4,0.000033,0.000017,-0.000277,-0.000031,  50.003
    20.6,0.000030,0.000020,-0.000177,-0.000053,  50.002
    20.8,0.000027,0.000018,-0.000112,-0.000053,  49.999
    21.0,0.000024,0.000020,-0.000068,-0.000031,  49.999
    21.2,0.000024,0.000021,-0.000013,-0.000053,  49.998
    21.4,0.000030,0.000021,0.000016,-0.000053,  49.997
    21.6,0.000026,0.000023,0.000047,-0.000031,  49.995
    21.8,0.000029,0.000020,-0.000295,-0.000053,  49.996
    22.0,0.000038,0.000018,-0.000825,-0.000053,  49.995
    22.2,0.000032,0.000017,-0.001544,-0.000031,  49.993
    22.4,0.000032,0.000017,-0.001724,-0.000053,  49.992
    22.6,0.000035,0.000014,-0.001708,-0.000053,  49.988
    22.8,0.000034,0.000010,-0.001534,-0.000018,  49.991
    23.0,0.000034,0.000017,-0.001365,-0.000040,  49.989
    23.2,0.000041,0.000015,-0.001089,-0.000040,  49.988
    23.4,0.000041,0.000015,-0.000744,-0.000005,  49.990
    23.6,0.000037,0.000013,-0.000555,-0.000027,  49.986
    23.8,0.000041,0.000011,-0.000411,-0.000027,  49.987
    24.0,0.000041,0.000009,-0.000300,-0.000005,  49.986
    24.2,0.000041,0.000011,-0.000194,-0.000040,  49.987
    24.4,0.000038,0.000004,-0.000134,-0.000040,  49.985
    24.6,0.000035,0.000004,-0.000114,-0.000040,  49.982
    24.8,0.000029,0.000007,-0.000024,-0.000053,  49.987
    25.0,0.000024,0.000000,0.000087,-0.000053,  49.987
    25.2,0.000027,-0.000002,0.000186,-0.000053,  49.985
    25.4,0.000021,-0.000001,0.000305,-0.000053,  49.985
    25.6,0.000016,-0.000004,0.000419,-0.000088,  49.984
    25.8,0.000017,-0.000004,0.000559,-0.000066,  49.989
    26.0,0.000008,-0.000005,0.000584,-0.000044,  49.989
    26.2,0.000008,-0.000005,0.000543,-0.000044,  49.984
    26.4,0.000012,-0.000007,0.000479,-0.000044,  49.989
    26.6,0.000005,-0.000004,0.000339,-0.000044,  49.991
    26.8,0.000003,-0.000009,0.000319,-0.000066,  49.987
    27.0,0.000006,-0.000010,0.000308,-0.000079,  49.985
    27.2,0.000003,-0.000012,0.000319,-0.000044,  49.986
    27.4,0.000003,-0.000016,0.000279,-0.000066,  49.984
    27.6,0.000009,-0.000013,0.000214,-0.000079,  49.986
    27.8,0.000005,-0.000020,0.000134,-0.000044,  49.990
    28.0,0.000003,-0.000017,-0.000041,-0.000066,  49.981
    28.2,0.000009,-0.000017,-0.000287,-0.000079,  49.980
    28.4,0.000005,-0.000017,-0.000577,-0.000044,  49.975
    28.6,0.000003,-0.000015,-0.000577,-0.000066,  49.978
    28.8,0.000006,-0.000015,-0.000472,-0.000079,  49.975
    29.0,0.000003,-0.000017,-0.000257,-0.000044,  49.976
    29.2,0.000003,-0.000012,-0.000207,-0.000066,  49.975
    29.4,0.000006,-0.000014,-0.000187,-0.000066,  49.971
    29.6,0.000000,-0.000012,-0.000207,-0.000031,  49.974
    29.8,0.000000,-0.000008,-0.000178,-0.000053,  49.967
    30.0,0.000001,-0.000009,-0.000143,-0.000053,  49.961
    30.2,-0.000003,-0.000009,-0.000113,-0.000031,  49.961
    30.4,-0.000003,-0.000012,-0.000029,-0.000053,  49.959
    30.6,0.000004,-0.000012,0.000086,-0.000053,  49.951
    30.8,0.000000,-0.000007,0.000232,-0.000053,  49.955
    31.0,0.000000,-0.000002,0.000286,-0.000053,  49.950
    31.2,0.000009,-0.000002,0.000295,-0.000053,  49.950
    31.4,0.000005,-0.000006,0.000275,-0.000053,  49.947
    31.6,0.000003,-0.000003,0.000229,-0.000053,  49.949
    31.8,0.000009,-0.000006,0.000180,-0.000053,  49.939
    32.0,0.000009,-0.000008,0.000086,-0.000053,  49.926
    32.2,0.000005,-0.000016,0.000026,-0.000053,  49.924
    32.4,0.000012,-0.000018,-0.000019,-0.000053,  49.923
    32.6,0.000012,-0.000018,-0.000067,-0.000053,  49.918
    32.8,0.000014,-0.000018,-0.000048,-0.000053,  49.914
    33.0,0.000018,-0.000023,0.000017,-0.000053,  49.915
    33.2,0.000015,-0.000018,0.000106,-0.000053,  49.911
    33.4,0.000012,-0.000014,0.000101,-0.000053,  49.908
    33.6,0.000009,-0.000018,0.000081,-0.000053,  49.903
    33.8,0.000006,-0.000016,0.000022,-0.000053,  49.902
    34.0,0.000003,-0.000018,-0.000007,-0.000053,  49.900
    34.2,0.000003,-0.000018,-0.000037,-0.000053,  49.899
    34.4,0.000009,-0.000016,-0.000081,-0.000053,  49.894
    34.6,0.000005,-0.000017,-0.000281,-0.000053,  49.897
    34.8,0.000003,-0.000013,-0.000581,-0.000075,  49.894
    35.0,0.000009,-0.000009,-0.000972,-0.000088,  49.894
    35.2,0.000005,-0.000007,-0.001032,-0.000053,  49.895
    35.4,0.000003,-0.000008,-0.000972,-0.000053,  49.892
    35.6,0.000009,-0.000006,-0.000813,-0.000053,  49.888
    35.8,0.000005,-0.000004,-0.000512,-0.000053,  49.888
    36.0,0.000003,-0.000004,-0.000447,-0.000053,  49.887
    36.2,0.000006,-0.000006,-0.000391,-0.000053,  49.886
    36.4,0.000003,-0.000007,-0.000361,-0.000053,  49.882
    36.6,0.000005,-0.000007,-0.000261,-0.000053,  49.888
    36.8,0.000012,-0.000009,-0.000131,-0.000053,  49.887
    37.0,0.000011,-0.000012,0.000013,-0.000053,  49.884
    37.2,0.000013,-0.000007,0.000062,-0.000040,  49.883
    37.4,0.000020,-0.000010,0.000098,-0.000040,  49.883
    37.6,0.000016,-0.000010,0.000093,-0.000040,  49.884
    37.8,0.000018,-0.000006,0.000098,-0.000027,  49.879
    38.0,0.000013,-0.000006,0.000093,-0.000027,  49.879
    38.2,0.000013,-0.000007,0.000084,-0.000040,  49.878
    38.4,0.000016,-0.000000,0.000099,-0.000040,  49.875
    38.6,0.000013,0.000002,0.000128,-0.000040,  49.873
    38.8,0.000013,-0.000005,0.000168,-0.000040,  49.875
    39.0,0.000016,-0.000002,0.000153,-0.000040,  49.877
    39.2,0.000013,-0.000000,0.000124,-0.000040,  49.877
    39.4,0.000013,-0.000008,0.000085,-0.000040,  49.873
    39.6,0.000018,-0.000008,0.000109,-0.000040,  49.874
    39.8,0.000018,-0.000003,0.000174,-0.000040,  49.875
    40.0,0.000021,-0.000002,0.000279,-0.000040,  49.867
    40.2,0.000021,-0.000001,0.000279,-0.000040,  49.868
    40.4,0.000021,0.000002,0.000224,-0.000040,  49.864
    40.6,0.000024,-0.000001,0.000135,-0.000040,  49.867
    40.8,0.000021,-0.000006,0.000131,-0.000040,  49.867
    41.0,0.000021,-0.000012,0.000125,-0.000040,  49.865
    41.2,0.000024,-0.000015,0.000130,-0.000040,  49.861
    41.4,0.000021,-0.000014,0.000161,-0.000040,  49.861
    41.6,0.000021,-0.000019,0.000170,-0.000040,  49.858
    41.8,0.000021,-0.000018,0.000200,-0.000040,  49.860
    42.0,0.000015,-0.000016,0.000050,-0.000040,  49.856
    42.2,0.000012,-0.000014,-0.000196,-0.000040,  49.858
    42.4,0.000013,-0.000018,-0.000521,-0.000040,  49.857
    42.6,0.000016,-0.000012,-0.000521,-0.000040,  49.854
    42.8,0.000013,-0.000012,-0.000396,-0.000040,  49.848
    43.0,0.000013,-0.000008,-0.000150,-0.000040,  49.851
    43.2,0.000013,-0.000010,-0.000065,-0.000053,  49.853
    43.4,0.000016,-0.000010,-0.000035,-0.000053,  49.849
    43.6,0.000013,-0.000004,-0.000025,-0.000018,  49.848
    43.8,0.000013,-0.000003,0.000050,-0.000066,  49.848
    44.0,0.000013,-0.000006,0.000109,-0.000066,  49.848
    44.2,0.000011,-0.000006,0.000200,-0.000018,  49.849
    44.4,0.000011,-0.000006,0.000221,-0.000018,  49.852
    44.6,0.000011,-0.000011,0.000186,-0.000040,  49.847
    44.8,0.000011,-0.000015,0.000131,-0.000018,  49.852
    45.0,0.000008,-0.000008,0.000141,-0.000018,  49.851
    45.2,0.000008,-0.000008,0.000181,-0.000018,  49.851
    45.4,0.000014,-0.000013,0.000215,-0.000018,  49.849
    45.6,0.000005,-0.000013,0.000290,-0.000018,  49.849
    45.8,0.000005,-0.000013,0.000305,-0.000053,  49.846
    46.0,0.000012,-0.000017,0.000305,-0.000053,  49.847
    46.2,0.000008,-0.000012,0.000295,-0.000053,  49.851
    46.4,0.000012,-0.000012,0.000324,-0.000053,  49.853
    46.6,0.000019,-0.000014,0.000360,-0.000053,  49.852
    46.8,0.000015,-0.000014,0.000389,-0.000053,  49.849
    47.0,0.000015,-0.000010,0.000218,-0.000053,  49.851
    47.2,0.000022,-0.000008,-0.000037,-0.000053,  49.847
    47.4,0.000018,-0.000011,-0.000422,-0.000066,  49.851
    47.6,0.000018,-0.000010,-0.000422,-0.000053,  49.850
    47.8,0.000021,-0.000012,-0.000291,-0.000053,  49.849
    48.0,0.000017,-0.000013,-0.000031,-0.000053,  49.849
    48.2,0.000023,-0.000014,0.000019,-0.000053,  49.848
    48.4,0.000023,-0.000018,0.000019,-0.000053,  49.846
    48.6,0.000020,-0.000013,-0.000004,-0.000053,  49.849
    48.8,0.000026,-0.000016,-0.000004,-0.000053,  49.847
    49.0,0.000023,-0.000021,-0.000025,-0.000053,  49.849
    49.2,0.000014,-0.000017,-0.000050,-0.000066,  49.850
    49.4,0.000018,-0.000019,-0.000021,-0.000053,  49.844
    49.6,0.000015,-0.000019,0.000040,-0.000053,  49.846
    49.8,0.000006,-0.000023,0.000105,-0.000066,  49.843
    50.0,0.000010,-0.000027,0.000144,-0.000053,  49.840
    50.2,0.000007,-0.000027,0.000178,-0.000053,  49.840
    50.4,0.000001,-0.000029,0.000208,-0.000066,  49.838
    50.6,0.000005,-0.000031,0.000077,-0.000053,  49.839
    50.8,-0.000000,-0.000029,-0.000134,-0.000053,  49.835
    51.0,-0.000007,-0.000033,-0.000434,-0.000066,  49.840
    51.2,-0.000000,-0.000031,-0.000449,-0.000053,  49.835
    51.4,-0.000000,-0.000026,-0.000384,-0.000066,  49.832
    51.6,-0.000003,-0.000030,-0.000228,-0.000079,  49.831
    51.8,0.000001,-0.000034,-0.000178,-0.000066,  49.834
    52.0,-0.000001,-0.000041,-0.000122,-0.000079,  49.832
    52.2,0.000004,-0.000038,-0.000093,-0.000092,  49.832
    52.4,0.000000,-0.000031,-0.000048,-0.000079,  49.831
    52.6,-0.000004,-0.000033,-0.000013,-0.000079,  49.828
    52.8,-0.000005,-0.000031,0.000033,-0.000079,  49.830
    53.0,-0.000008,-0.000026,0.000053,-0.000066,  49.826
    53.2,-0.000008,-0.000029,0.000049,-0.000079,  49.829
    53.4,-0.000008,-0.000027,0.000019,-0.000079,  49.829
    53.6,-0.000012,-0.000028,0.000038,-0.000079,  49.830
    53.8,-0.000006,-0.000031,0.000084,-0.000114,  49.828
    54.0,-0.000006,-0.000031,0.000123,-0.000101,  49.827
    54.2,-0.000009,-0.000024,0.000142,-0.000066,  49.831
    54.4,-0.000009,-0.000022,0.000182,-0.000066,  49.832
    54.6,-0.000009,-0.000025,0.000202,-0.000066,  49.832
    54.8,-0.000016,-0.000020,0.000227,-0.000066,  49.831
    55.0,-0.000016,-0.000020,0.000217,-0.000053,  49.831
    55.2,-0.000009,-0.000025,0.000192,-0.000053,  49.833
    55.4,-0.000013,-0.000024,0.000148,-0.000066,  49.831
    55.6,-0.000011,-0.000026,0.000152,-0.000053,  49.833
    55.8,-0.000004,-0.000030,0.000182,-0.000053,  49.830
    56.0,-0.000008,-0.000029,0.000221,-0.000066,  49.833
    56.2,-0.000005,-0.000027,0.000211,-0.000053,  49.837
    56.4,-0.000002,-0.000026,0.000196,-0.000053,  49.832
    56.6,-0.000008,-0.000028,0.000152,-0.000066,  49.832
    56.8,-0.000008,-0.000022,0.000142,-0.000053,  49.832
    57.0,-0.000002,-0.000024,0.000152,-0.000053,  49.826
    57.2,-0.000008,-0.000024,0.000157,-0.000066,  49.833
    57.4,-0.000008,-0.000027,0.000170,-0.000053,  49.834
    57.6,-0.000002,-0.000029,0.000216,-0.000053,  49.837
    57.8,-0.000008,-0.000029,0.000276,-0.000066,  49.833
    58.0,-0.000008,-0.000027,0.000230,-0.000053,  49.833
    58.2,-0.000002,-0.000031,0.000161,-0.000053,  49.829
    58.4,-0.000011,-0.000035,0.000068,-0.000066,  49.831
    58.6,-0.000013,-0.000031,0.000064,-0.000053,  49.830
    58.8,-0.000016,-0.000029,0.000068,-0.000053,  49.831
    59.0,-0.000018,-0.000031,0.000114,-0.000066,  49.831
    59.2,-0.000015,-0.000035,0.000124,-0.000053,  49.829
    59.4,-0.000008,-0.000031,0.000114,-0.000053,  49.832
    59.6,-0.000008,-0.000027,0.000093,-0.000066,  49.825
    59.8,-0.000017,-0.000025,0.000118,-0.000053,  49.828
    60.0,-0.000012,-0.000025,0.000148,-0.000066,  49.827
    60.2,-0.000015,-0.000021,0.000187,-0.000079,  49.827
    60.4,-0.000015,-0.000019,0.000217,-0.000066,  49.831
    60.6,-0.000012,-0.000020,0.000238,-0.000079,  49.830
    60.8,-0.000015,-0.000023,0.000258,-0.000079,  49.833
    61.0,-0.000016,-0.000018,0.000283,-0.000066,  49.831
    61.2,-0.000013,-0.000012,0.000298,-0.000079,  49.827
    61.4,-0.000004,-0.000019,0.000308,-0.000079,  49.828
    61.6,-0.000005,-0.000013,0.000308,-0.000079,  49.826
    61.8,-0.000003,-0.000013,0.000314,-0.000114,  49.831
    62.0,0.000004,-0.000017,0.000289,-0.000114,  49.830
    62.2,0.000000,-0.000018,0.000314,-0.000079,  49.829
    62.4,0.000000,-0.000019,0.000333,-0.000079,  49.829
    62.6,0.000009,-0.000019,0.000373,-0.000066,  49.831
    62.8,0.000005,-0.000019,0.000373,-0.000066,  49.825
    63.0,0.000000,-0.000018,0.000348,-0.000053,  49.831
    63.2,0.000004,-0.000027,0.000308,-0.000053,  49.833
    63.4,0.000000,-0.000031,0.000238,-0.000066,  49.827
    63.6,-0.000003,-0.000031,0.000202,-0.000053,  49.829
    63.8,0.000004,-0.000031,0.000162,-0.000053,  49.829
    64.0,0.000000,-0.000031,0.000123,-0.000066,  49.828
    64.2,-0.000003,-0.000025,0.000083,-0.000053,  49.827
    64.4,0.000004,-0.000025,0.000033,-0.000053,  49.827
    64.6,-0.000002,-0.000023,-0.000017,-0.000066,  49.829
    64.8,0.000007,-0.000030,0.000002,-0.000053,  49.831
    65.0,0.000017,-0.000032,0.000046,-0.000053,  49.832
    65.2,0.000017,-0.000037,0.000110,-0.000066,  49.831
    65.4,0.000007,-0.000032,0.000135,-0.000053,  49.831
    65.6,0.000005,-0.000034,0.000124,-0.000066,  49.832
    65.8,0.000002,-0.000040,0.000095,-0.000079,  49.829
    66.0,-0.000001,-0.000036,-0.000051,-0.000066,  49.831
    66.2,-0.000001,-0.000034,-0.000266,-0.000079,  49.828
    66.4,-0.000005,-0.000038,-0.000566,-0.000079,  49.831
    66.6,-0.000007,-0.000034,-0.000581,-0.000066,  49.834
    66.8,-0.000014,-0.000032,-0.000516,-0.000079,  49.829
    67.0,-0.000017,-0.000038,-0.000351,-0.000092,  49.828
    67.2,-0.000014,-0.000038,-0.000257,-0.000079,  49.831
    67.4,-0.000014,-0.000036,-0.000157,-0.000079,  49.828
    67.6,-0.000017,-0.000040,-0.000052,-0.000092,  49.827
    67.8,-0.000014,-0.000042,0.000002,-0.000079,  49.829
    68.0,-0.000014,-0.000038,0.000023,-0.000079,  49.827
    68.2,-0.000020,-0.000039,0.000008,-0.000092,  49.824
    68.4,-0.000014,-0.000037,0.000008,-0.000079,  49.825
    68.6,-0.000016,-0.000037,-0.000021,-0.000079,  49.826
    68.8,-0.000016,-0.000041,-0.000066,-0.000092,  49.821
    69.0,-0.000014,-0.000040,-0.000051,-0.000079,  49.823
    69.2,-0.000017,-0.000040,-0.000026,-0.000092,  49.826
    69.4,-0.000008,-0.000042,0.000020,-0.000105,  49.826
    69.6,-0.000006,-0.000038,0.000045,-0.000092,  49.824
    69.8,-0.000006,-0.000035,0.000065,-0.000105,  49.823
    70.0,-0.000006,-0.000033,0.000070,-0.000105,  49.822
    70.2,-0.000009,-0.000033,0.000104,-0.000092,  49.823
    70.4,-0.000012,-0.000033,0.000160,-0.000092,  49.823
    70.6,-0.000017,-0.000032,0.000204,-0.000092,  49.823
    70.8,-0.000018,-0.000035,0.000158,-0.000079,  49.819
    71.0,-0.000013,-0.000032,0.000095,-0.000079,  49.819
    71.2,-0.000004,-0.000037,-0.000019,-0.000092,  49.821
    71.4,-0.000011,-0.000033,-0.000029,-0.000092,  49.814
    71.6,-0.000011,-0.000030,-0.000010,-0.000127,  49.815
    71.8,-0.000016,-0.000029,0.000055,-0.000127,  49.817
    72.0,-0.000018,-0.000029,0.000070,-0.000092,  49.817
    72.2,-0.000018,-0.000027,0.000074,-0.000092,  49.815
    72.4,-0.000016,-0.000025,0.000079,-0.000092,  49.810
    72.6,-0.000016,-0.000025,0.000074,-0.000092,  49.792
    72.8,-0.000016,-0.000025,0.000098,-0.000079,  49.792
    73.0,-0.000016,-0.000025,0.000144,-0.000092,  49.791
    73.2,-0.000016,-0.000023,0.000204,-0.000105,  49.790
    73.4,-0.000016,-0.000023,0.000183,-0.000092,  49.793
    73.6,-0.000016,-0.000027,0.000155,-0.000092,  49.786
    73.8,-0.000016,-0.000027,0.000071,-0.000092,  49.784
    74.0,-0.000016,-0.000025,0.000061,-0.000079,  49.782
    74.2,-0.000009,-0.000032,0.000071,-0.000079,  49.781
    74.4,-0.000013,-0.000029,0.000096,-0.000079,  49.781
    74.6,-0.000013,-0.000029,0.000076,-0.000066,  49.784
    74.8,-0.000007,-0.000029,0.000056,-0.000079,  49.781
    75.0,-0.000011,-0.000029,0.000022,-0.000079,  49.778
    75.2,-0.000011,-0.000033,0.000018,-0.000066,  49.777
    75.4,-0.000007,-0.000036,0.000018,-0.000066,  49.777
    75.6,-0.000013,-0.000036,0.000008,-0.000066,  49.776
    75.8,-0.000013,-0.000031,0.000033,-0.000053,  49.776
    76.0,-0.000007,-0.000027,0.000083,-0.000066,  49.774
    76.2,-0.000013,-0.000032,0.000132,-0.000079,  49.780
    76.4,-0.000013,-0.000030,0.000120,-0.000066,  49.774
    76.6,-0.000007,-0.000030,0.000121,-0.000079,  49.769
    76.8,-0.000016,-0.000035,0.000092,-0.000092,  49.767
    77.0,-0.000016,-0.000032,0.000106,-0.000079,  49.773
    77.2,-0.000009,-0.000037,0.000137,-0.000079,  49.767
    77.4,-0.000018,-0.000042,0.000162,-0.000092,  49.767
    77.6,-0.000018,-0.000047,0.000167,-0.000079,  49.773
    77.8,-0.000009,-0.000049,0.000162,-0.000079,  49.772
    78.0,-0.000009,-0.000045,0.000148,-0.000092,  49.772
    78.2,-0.000018,-0.000046,0.000117,-0.000079,  49.773
    78.4,-0.000009,-0.000051,0.000086,-0.000092,  49.774
    78.6,-0.000015,-0.000049,0.000056,-0.000070,  49.772
    78.8,-0.000014,-0.000044,0.000061,-0.000092,  49.772
    79.0,-0.000005,-0.000049,0.000080,-0.000105,  49.777
    79.2,-0.000002,-0.000044,0.000130,-0.000070,  49.773
    79.4,-0.000006,-0.000040,0.000166,-0.000092,  49.772
    79.6,-0.000007,-0.000044,0.000185,-0.000092,  49.773
    79.8,-0.000011,-0.000038,0.000200,-0.000092,  49.775
    80.0,-0.000015,-0.000038,0.000189,-0.000079,  49.775
    80.2,-0.000013,-0.000040,0.000175,-0.000079,  49.774
    80.4,-0.000013,-0.000032,0.000141,-0.000092,  49.775
    80.6,-0.000016,-0.000030,0.000130,-0.000092,  49.776
    80.8,-0.000014,-0.000030,0.000130,-0.000127,  49.777
    81.0,-0.000008,-0.000024,0.000124,-0.000127,  49.773
    81.2,-0.000009,-0.000022,0.000079,-0.000092,  49.778
    81.4,-0.000003,-0.000023,0.000024,-0.000092,  49.776
    81.6,-0.000000,-0.000016,-0.000055,-0.000092,  49.777
    81.8,-0.000004,-0.000014,-0.000154,-0.000092,  49.782
    82.0,0.000007,-0.000015,-0.000114,-0.000079,  49.779
    82.2,0.000007,-0.000013,-0.000039,-0.000092,  49.777
    82.4,0.000004,-0.000011,0.000080,-0.000070,  49.777
    82.6,0.000006,-0.000006,0.000110,-0.000092,  49.779
    82.8,0.000009,-0.000006,0.000126,-0.000092,  49.777
    83.0,0.000005,-0.000008,0.000106,-0.000092,  49.779
    83.2,0.000005,-0.000007,-0.000089,-0.000079,  49.781
    83.4,0.000014,-0.000002,-0.000379,-0.000079,  49.779
    83.6,0.000011,-0.000004,-0.000779,-0.000092,  49.783
    83.8,0.000011,-0.000011,-0.000985,-0.000079,  49.781
    84.0,0.000017,-0.000009,-0.001139,-0.000079,  49.783
    84.2,0.000011,-0.000009,-0.001264,-0.000092,  49.785
    84.4,0.000008,-0.000009,-0.001189,-0.000079,  49.780
    84.6,0.000009,-0.000009,-0.000994,-0.000079,  49.782
    84.8,0.000003,-0.000011,-0.000693,-0.000079,  49.784
    85.0,0.000000,-0.000010,-0.000538,-0.000066,  49.779
    85.2,0.000009,-0.000008,-0.000407,-0.000079,  49.778
    85.4,0.000005,-0.000009,-0.000297,-0.000092,  49.781
    85.6,0.000003,-0.000005,-0.000413,-0.000079,  49.780
    85.8,0.000006,-0.000005,-0.000653,-0.000079,  49.782
    86.0,0.000003,-0.000009,-0.001023,-0.000092,  49.784
    86.2,0.000005,-0.000013,-0.000954,-0.000079,  49.785
    86.4,0.000012,-0.000012,-0.000719,-0.000079,  49.783
    86.6,0.000008,-0.000009,-0.000329,-0.000057,  49.786
    86.8,0.000005,-0.000010,-0.000229,-0.000079,  49.784
    87.0,0.000009,-0.000012,-0.000193,-0.000079,  49.782
    87.2,0.000005,-0.000010,-0.000237,-0.000057,  49.785
    87.4,0.000003,-0.000012,-0.000197,-0.000079,  49.782
    87.6,0.000006,-0.000019,-0.000157,-0.000079,  49.782
    87.8,0.000006,-0.000018,-0.000128,-0.000057,  49.785
    88.0,0.000009,-0.000014,-0.000063,-0.000079,  49.782
    88.2,0.000009,-0.000014,0.000006,-0.000079,  49.779
    88.4,0.000015,-0.000019,0.000077,-0.000092,  49.781
    88.6,0.000018,-0.000017,0.000112,-0.000079,  49.777
    88.8,0.000015,-0.000015,0.000117,-0.000079,  49.778
    89.0,0.000015,-0.000015,0.000108,-0.000092,  49.781
    89.2,0.000012,-0.000017,0.000093,-0.000079,  49.777
    89.4,0.000015,-0.000019,0.000068,-0.000079,  49.781
    89.6,0.000013,-0.000016,0.000028,-0.000079,  49.780
    89.8,0.000009,-0.000014,0.000013,-0.000066,  49.780
    90.0,0.000015,-0.000012,-0.000012,-0.000066,  49.782
    90.2,0.000015,-0.000019,-0.000042,-0.000066,  49.781
    90.4,0.000012,-0.000017,-0.000073,-0.000066,  49.777
    90.6,0.000015,-0.000015,-0.000113,-0.000101,  49.777
    90.8,0.000015,-0.000015,-0.000153,-0.000114,  49.776
    91.0,0.000012,-0.000015,-0.000148,-0.000079,  49.780
    91.2,0.000015,-0.000017,-0.000114,-0.000079,  49.777
    91.4,0.000015,-0.000017,-0.000044,-0.000066,  49.775
    91.6,0.000009,-0.000019,0.000036,-0.000066,  49.777
    91.8,0.000013,-0.000019,0.000020,-0.000053,  49.780
    92.0,0.000007,-0.000015,-0.000005,-0.000053,  49.776
    92.2,0.000001,-0.000015,-0.000050,-0.000066,  49.773
    92.4,0.000010,-0.000013,-0.000039,-0.000053,  49.774
    92.6,0.000007,-0.000017,-0.000025,-0.000053,  49.775
    92.8,0.000001,-0.000019,0.000001,-0.000066,  49.775
    93.0,0.000010,-0.000019,-0.000004,-0.000053,  49.772
    93.2,0.000007,-0.000021,-0.000019,-0.000066,  49.777
    93.4,0.000001,-0.000025,-0.000064,-0.000079,  49.769
    93.6,0.000010,-0.000027,-0.000029,-0.000066,  49.770
    93.8,0.000007,-0.000026,0.000026,-0.000079,  49.773
    94.0,0.000001,-0.000029,0.000095,-0.000079,  49.773
    94.2,0.000007,-0.000031,0.000079,-0.000066,  49.772
    94.4,0.000002,-0.000033,0.000029,-0.000079,  49.772
    94.6,-0.000004,-0.000035,-0.000055,-0.000079,  49.775
    94.8,0.000005,-0.000041,-0.000297,-0.000066,  49.775
    95.0,0.000002,-0.000043,-0.000633,-0.000079,  49.772
    95.2,-0.000007,-0.000045,-0.001068,-0.000079,  49.775
    95.4,-0.000003,-0.000046,-0.001118,-0.000066,  49.770
    95.6,-0.000008,-0.000042,-0.001028,-0.000092,  49.774
    95.8,-0.000017,-0.000040,-0.000792,-0.000105,  49.770
    96.0,-0.000016,-0.000043,-0.000677,-0.000092,  49.770
    96.2,-0.000019,-0.000039,-0.000564,-0.000105,  49.769
    96.4,-0.000025,-0.000037,-0.000430,-0.000105,  49.768
    96.6,-0.000019,-0.000037,-0.000336,-0.000092,  49.768
    96.8,-0.000019,-0.000035,-0.000246,-0.000105,  49.770
    97.0,-0.000016,-0.000032,-0.000192,-0.000105,  49.769
    97.2,-0.000016,-0.000033,-0.000162,-0.000092,  49.769
    97.4,-0.000020,-0.000033,-0.000152,-0.000105,  49.769
    97.6,-0.000016,-0.000029,-0.000167,-0.000105,  49.766
    97.8,-0.000014,-0.000025,-0.000147,-0.000092,  49.766
    98.0,-0.000016,-0.000023,-0.000127,-0.000092,  49.769
    98.2,-0.000016,-0.000021,-0.000092,-0.000092,  49.768
    98.4,-0.000020,-0.000021,-0.000062,-0.000079,  49.766
    98.6,-0.000011,-0.000018,-0.000043,-0.000079,  49.767
    98.8,-0.000011,-0.000019,-0.000018,-0.000079,  49.772
    99.0,-0.000015,-0.000017,0.000007,-0.000066,  49.767
    99.2,-0.000006,-0.000015,0.000022,-0.000101,  49.767
    99.4,-0.000003,-0.000016,0.000016,-0.000101,  49.767
    99.6,-0.000007,-0.000017,-0.000003,-0.000079,  49.767
    99.8,-0.000007,-0.000018,-0.000047,-0.000079,  49.760
   100.0,-0.000007,-0.000020,-0.000137,-0.000079,  49.765
   100.2,-0.000011,-0.000020,-0.000342,-0.000079,  49.763
   100.4,-0.000008,-0.000020,-0.000627,-0.000066,  49.764
   100.6,-0.000004,-0.000022,-0.001007,-0.000079,  49.763
   100.8,-0.000011,-0.000017,-0.001462,-0.000079,  49.761
   101.0,-0.000008,-0.000017,-0.001437,-0.000066,  49.764
   101.2,-0.000002,-0.000019,-0.001282,-0.000079,  49.766
   101.4,-0.000007,-0.000018,-0.000991,-0.000079,  49.762
   101.6,-0.000002,-0.000016,-0.000886,-0.000066,  49.766
   101.8,0.000004,-0.000020,-0.000815,-0.000079,  49.761
   102.0,-0.000002,-0.000018,-0.000774,-0.000092,  49.760
   102.2,0.000000,-0.000017,-0.000660,-0.000079,  49.761
   102.4,-0.000001,-0.000014,-0.000524,-0.000079,  49.757
   102.6,-0.000005,-0.000016,-0.000390,-0.000092,  49.761
   102.8,-0.000005,-0.000023,-0.000376,-0.000079,  49.759
   103.0,-0.000005,-0.000025,-0.000415,-0.000079,  49.760
   103.2,-0.000008,-0.000027,-0.000520,-0.000092,  49.760
   103.4,-0.000008,-0.000024,-0.000501,-0.000079,  49.761
   103.6,-0.000002,-0.000027,-0.000455,-0.000079,  49.761
   103.8,-0.000006,-0.000027,-0.000390,-0.000092,  49.762
   104.0,-0.000006,-0.000022,-0.000331,-0.000079,  49.763
   104.2,0.000001,-0.000027,-0.000261,-0.000092,  49.765
   104.4,-0.000003,-0.000030,-0.000206,-0.000070,  49.762
   104.6,-0.000003,-0.000026,-0.000523,-0.000092,  49.764
   104.8,0.000001,-0.000027,-0.001012,-0.000092,  49.762
   105.0,-0.000000,-0.000027,-0.001706,-0.000057,  49.758
   105.2,-0.000000,-0.000016,-0.001710,-0.000079,  49.764
   105.4,0.000006,-0.000014,-0.001486,-0.000079,  49.761
   105.6,0.000002,-0.000021,-0.001006,-0.000057,  49.761
   105.8,0.000002,-0.000018,-0.000871,-0.000079,  49.757
   106.0,0.000006,-0.000013,-0.000786,-0.000079,  49.757
   106.2,0.000009,-0.000018,-0.000746,-0.000057,  49.760
   106.4,0.000009,-0.000012,-0.000657,-0.000079,  49.757
   106.6,0.000005,-0.000010,-0.000573,-0.000092,  49.759
   106.8,0.000005,-0.000015,-0.000477,-0.000070,  49.756
   107.0,0.000007,-0.000016,-0.000387,-0.000092,  49.758
   107.2,0.000007,-0.000017,-0.000318,-0.000092,  49.756
   107.4,0.000005,-0.000013,-0.000253,-0.000057,  49.757
   107.6,-0.000002,-0.000011,-0.000203,-0.000079,  49.757
   107.8,0.000007,-0.000014,-0.000199,-0.000079,  49.760
   108.0,0.000007,-0.000014,-0.000193,-0.000057,  49.760
   108.2,0.000001,-0.000014,-0.000208,-0.000079,  49.761
   108.4,0.000010,-0.000018,-0.000252,-0.000079,  49.761
   108.6,0.000007,-0.000022,-0.000311,-0.000057,  49.763
   108.8,0.000004,-0.000021,-0.000315,-0.000057,  49.762
   109.0,0.000006,-0.000021,-0.000326,-0.000092,  49.761
   109.2,0.000006,-0.000021,-0.000311,-0.000057,  49.763
   109.4,0.000003,-0.000023,-0.000286,-0.000057,  49.767
   109.6,0.000000,-0.000023,-0.000251,-0.000057,  49.770
   109.8,0.000004,-0.000021,-0.000217,-0.000057,  49.771
   110.0,-0.000003,-0.000023,-0.000161,-0.000057,  49.770
   110.2,-0.000003,-0.000025,-0.000156,-0.000079,  49.773
   110.4,0.000001,-0.000025,-0.000146,-0.000079,  49.770
   110.6,-0.000005,-0.000029,-0.000161,-0.000057,  49.774
   110.8,-0.000002,-0.000031,-0.000156,-0.000079,  49.779
   111.0,-0.000000,-0.000034,-0.000167,-0.000079,  49.776
   111.2,-0.000009,-0.000031,-0.000161,-0.000057,  49.774
   111.4,-0.000003,-0.000031,-0.000186,-0.000079,  49.773
   111.6,-0.000006,-0.000038,-0.000236,-0.000092,  49.780
   111.8,-0.000012,-0.000035,-0.000285,-0.000070,  49.772
   112.0,-0.000006,-0.000034,-0.000265,-0.000092,  49.778
   112.2,-0.000006,-0.000034,-0.000211,-0.000105,  49.780
   112.4,-0.000009,-0.000032,-0.000131,-0.000070,  49.776
   112.6,-0.000006,-0.000030,-0.000122,-0.000092,  49.778
   112.8,-0.000011,-0.000033,-0.000117,-0.000092,  49.778
   113.0,-0.000015,-0.000033,-0.000146,-0.000057,  49.777
   113.2,-0.000008,-0.000026,-0.000202,-0.000079,  49.776
   113.4,-0.000008,-0.000031,-0.000251,-0.000092,  49.779
   113.6,-0.000012,-0.000038,-0.000330,-0.000070,  49.777
   113.8,-0.000012,-0.000039,-0.000756,-0.000092,  49.779
   114.0,-0.000012,-0.000041,-0.001345,-0.000105,  49.772
   114.2,-0.000016,-0.000040,-0.002143,-0.000070,  49.775
   114.4,-0.000009,-0.000030,-0.002168,-0.000092,  49.778
   114.6,-0.000003,-0.000033,-0.001899,-0.000105,  49.774
   114.8,-0.000007,-0.000029,-0.001344,-0.000105,  49.776
   115.0,-0.000007,-0.000025,-0.001109,-0.000092,  49.771
   115.2,-0.000007,-0.000030,-0.000900,-0.000105,  49.771
   115.4,-0.000004,-0.000028,-0.000717,-0.000105,  49.771
   115.6,-0.000011,-0.000029,-0.000571,-0.000092,  49.769
   115.8,-0.000002,-0.000032,-0.000471,-0.000105,  49.770
   116.0,-0.000002,-0.000025,-0.000426,-0.000105,  49.763
   116.2,0.000004,-0.000023,-0.000336,-0.000092,  49.761
   116.4,0.000006,-0.000026,-0.000236,-0.000105,  49.760
   116.6,0.000009,-0.000023,-0.000151,-0.000105,  49.759
   116.8,0.000008,-0.000021,-0.000130,-0.000092,  49.756
   117.0,0.000008,-0.000020,-0.000164,-0.000092,  49.752
   117.2,0.000017,-0.000017,-0.000222,-0.000092,  49.751
   117.4,0.000016,-0.000015,-0.000216,-0.000092,  49.748
   117.6,0.000018,-0.000015,-0.000206,-0.000127,  49.749
   117.8,0.000027,-0.000013,-0.000179,-0.000127,  49.747
   118.0,0.000024,-0.000016,-0.000134,-0.000092,  49.744
   118.2,0.000024,-0.000016,-0.000079,-0.000092,  49.742
   118.4,0.000033,-0.000023,-0.000019,-0.000092,  49.736
   118.6,0.000029,-0.000021,0.000051,-0.000092,  49.734
   118.8,0.000026,-0.000017,0.000061,-0.000079,  49.734
   119.0,0.000033,-0.000018,0.000052,-0.000092,  49.735
   119.2,0.000029,-0.000010,0.000028,-0.000070,  49.737
   119.4,0.000026,-0.000008,0.000064,-0.000092,  49.736
   119.6,0.000033,-0.000004,0.000119,-0.000105,  49.735
   119.8,0.000029,-0.000004,0.000174,-0.000070,  49.737
   120.0,0.000029,-0.000002,0.000204,-0.000092,  49.735
   120.2,0.000038,0.000007,0.000240,-0.000105,  49.734
   120.4,0.000034,0.000011,0.000256,-0.000070,  49.735
   120.6,0.000037,0.000018,0.000262,-0.000092,  49.736
   120.8,0.000043,0.000022,0.000274,-0.000105,  49.732
   121.0,0.000042,0.000024,0.000254,-0.000070,  49.733
   121.2,0.000047,0.000028,0.000256,-0.000092,  49.729
   121.4,0.000056,0.000034,0.000263,-0.000105,  49.728
   121.6,0.000055,0.000032,0.000260,-0.000070,  49.723
   121.8,0.000058,0.000034,0.000291,-0.000092,  49.731
   122.0,0.000070,0.000033,0.000330,-0.000105,  49.729
   122.2,0.000069,0.000035,0.000376,-0.000070,  49.727
   122.4,0.000074,0.000039,0.000417,-0.000092,  49.725
   122.6,0.000085,0.000041,0.000438,-0.000092,  49.726
   122.8,0.000082,0.000046,0.000460,-0.000057,  49.721
   123.0,0.000093,0.000054,0.000380,-0.000079,  49.720
   123.2,0.000102,0.000061,0.000230,-0.000079,  49.725
   123.4,0.000104,0.000064,0.000025,-0.000044,  49.721
   123.6,0.000118,0.000068,0.000061,-0.000066,  49.726
   123.8,0.000123,0.000069,0.000157,-0.000079,  49.724
   124.0,0.000129,0.000068,0.000338,-0.000044,  49.723
   124.2,0.000134,0.000072,0.000465,-0.000066,  49.723
   124.4,0.000130,0.000071,0.000592,-0.000079,  49.722
   124.6,0.000137,0.000075,0.000713,-0.000044,  49.721
   124.8,0.000139,0.000080,0.000808,-0.000066,  49.716
   125.0,0.000142,0.000079,0.000889,-0.000079,  49.719
   125.2,0.000147,0.000078,0.000951,-0.000044,  49.716
   125.4,0.000143,0.000086,0.000897,-0.000066,  49.714
   125.6,0.000152,0.000086,0.000777,-0.000079,  49.714
   125.8,0.000156,0.000086,0.000582,-0.000044,  49.716
   126.0,0.000152,0.000092,0.000603,-0.000066,  49.717
   126.2,0.000158,0.000091,0.000704,-0.000079,  49.717
   126.4,0.000169,0.000088,0.000887,-0.000044,  49.709
   126.6,0.000168,0.000091,0.001008,-0.000044,  49.711
   126.8,0.000174,0.000095,0.001134,-0.000066,  49.709
   127.0,0.000179,0.000099,0.001290,-0.000066,  49.709
   127.2,0.000180,0.000104,0.001371,-0.000053,  49.710
   127.4,0.000192,0.000105,0.001432,-0.000053,  49.701
   127.6,0.000192,0.000108,0.001469,-0.000053,  49.705
   127.8,0.000191,0.000111,0.001485,-0.000066,  49.706
   128.0,0.000205,0.000113,0.001516,-0.000053,  49.701
   128.2,0.000208,0.000117,0.001538,-0.000053,  49.704
   128.4,0.000207,0.000123,0.001543,-0.000066,  49.701
   128.6,0.000216,0.000127,0.001595,-0.000053,  49.699
   128.8,0.000218,0.000129,0.001667,-0.000066,  49.699
   129.0,0.000217,0.000133,0.001749,-0.000079,  49.697
   129.2,0.000226,0.000138,0.001790,-0.000066,  49.698
   129.4,0.000229,0.000136,0.001827,-0.000079,  49.699
   129.6,0.000228,0.000140,0.001849,-0.000092,  49.699
   129.8,0.000237,0.000147,0.001894,-0.000079,  49.695
   130.0,0.000242,0.000148,0.001946,-0.000079,  49.694
   130.2,0.000241,0.000157,0.001993,-0.000092,  49.694
   130.4,0.000253,0.000161,0.002049,-0.000079,  49.700
   130.6,0.000258,0.000165,0.002116,-0.000079,  49.699
   130.8,0.000257,0.000177,0.002167,-0.000092,  49.701
   131.0,0.000268,0.000188,0.002203,-0.000079,  49.698
   131.2,0.000276,0.000196,0.002246,-0.000079,  49.695
   131.4,0.000281,0.000201,0.002257,-0.000092,  49.694
   131.6,0.000286,0.000209,0.002167,-0.000079,  49.694
   131.8,0.000294,0.000210,0.002032,-0.000079,  49.697
   132.0,0.000298,0.000221,0.001821,-0.000057,  49.700
   132.2,0.000303,0.000229,0.001888,-0.000079,  49.701
   132.4,0.000317,0.000229,0.002070,-0.000066,  49.702
   132.6,0.000322,0.000244,0.002358,-0.000031,  49.700
   132.8,0.000330,0.000256,0.002475,-0.000053,  49.704
   133.0,0.000340,0.000261,0.002573,-0.000053,  49.704
   133.2,0.000351,0.000276,0.002629,-0.000031,  49.707
   133.4,0.000359,0.000286,0.002700,-0.000053,  49.708
   133.6,0.000367,0.000295,0.002773,-0.000053,  49.706
   133.8,0.000372,0.000309,0.002814,-0.000031,  49.705
   134.0,0.000376,0.000319,0.002890,-0.000053,  49.709
   134.2,0.000379,0.000328,0.002998,-0.000066,  49.701
   134.4,0.000393,0.000343,0.003115,-0.000044,  49.703
   134.6,0.000401,0.000355,0.003186,-0.000066,  49.705
   134.8,0.000411,0.000364,0.003249,-0.000079,  49.702
   135.0,0.000422,0.000378,0.003300,-0.000044,  49.707
   135.2,0.000432,0.000392,0.003361,-0.000066,  49.705
   135.4,0.000443,0.000405,0.003438,-0.000044,  49.708
   135.6,0.000454,0.000421,0.003495,-0.000022,  49.709
   135.8,0.000464,0.000438,0.003414,-0.000022,  49.708
   136.0,0.000472,0.000457,0.003258,-0.000057,  49.708
   136.2,0.000483,0.000478,0.003038,-0.000057,  49.709
   136.4,0.000493,0.000496,0.003048,-0.000044,  49.713
   136.6,0.000504,0.000514,0.003155,-0.000044,  49.708
   136.8,0.000521,0.000537,0.003338,-0.000044,  49.709
   137.0,0.000527,0.000558,0.003125,-0.000057,  49.708
   137.2,0.000541,0.000580,0.002772,-0.000079,  49.709
   137.4,0.000560,0.000603,0.002273,-0.000079,  49.712
   137.6,0.000567,0.000634,0.001609,-0.000057,  49.710
   137.8,0.000583,0.000663,0.001343,-0.000079,  49.708
   138.0,0.000605,0.000697,0.001138,-0.000092,  49.710
   138.2,0.000617,0.000726,0.001003,-0.000070,  49.709
   138.4,0.000633,0.000753,0.001235,-0.000105,  49.708
   138.6,0.000653,0.000780,0.001657,-0.000118,  49.706
   138.8,0.000668,0.000809,0.002302,-0.000096,  49.704
   139.0,0.000692,0.000837,0.002590,-0.000131,  49.707
   139.2,0.000716,0.000881,0.002803,-0.000131,  49.711
   139.4,0.000733,0.000926,0.002941,-0.000109,  49.708
   139.6,0.000759,0.000979,0.003109,-0.000144,  49.707
   139.8,0.000784,0.001027,0.003241,-0.000131,  49.701
   140.0,0.000809,0.001083,0.003332,-0.000109,  49.702
   140.2,0.000838,0.001139,0.003443,-0.000144,  49.702
   140.4,0.000870,0.001197,0.003529,-0.000144,  49.702
   140.6,0.000901,0.001253,0.003584,-0.000122,  49.704
   140.8,0.000941,0.001323,0.003625,-0.000170,  49.699
   141.0,0.000976,0.001388,0.003629,-0.000170,  49.700
   141.2,0.001009,0.001454,0.003610,-0.000135,  49.701
   141.4,0.001051,0.001530,0.003745,-0.000183,  49.697
   141.6,0.001091,0.001607,0.003941,-0.000183,  49.694
   141.8,0.001127,0.001686,0.004212,-0.000148,  49.697
   142.0,0.001176,0.001771,0.003857,-0.000170,  49.691
   142.2,0.001224,0.001855,0.003235,-0.000183,  49.690
   142.4,0.001265,0.001946,0.002326,-0.000196,  49.693
   142.6,0.001319,0.002037,0.002281,-0.000183,  49.689
   142.8,0.001370,0.002129,0.002533,-0.000209,  49.681
   143.0,0.001419,0.002230,0.003058,-0.000222,  49.669
   143.2,0.001481,0.002333,0.003163,-0.000222,  49.664
   143.4,0.001539,0.002440,0.003204,-0.000235,  49.658
   143.6,0.001586,0.002550,0.003174,-0.000248,  49.660
   143.8,0.001640,0.002669,0.003233,-0.000261,  49.650
   144.0,0.001686,0.002792,0.003314,-0.000274,  49.648
   144.2,0.001736,0.002917,0.003384,-0.000252,  49.647
   144.4,0.001793,0.003042,0.003412,-0.000300,  49.641
   144.6,0.001862,0.003177,0.003432,-0.000326,  49.637
   144.8,0.001935,0.003314,0.003420,-0.000304,  49.633
   145.0,0.002003,0.003459,0.003363,-0.000339,  49.628
   145.2,0.002082,0.003602,0.003285,-0.000352,  49.619
   145.4,0.002167,0.003753,0.003174,-0.000330,  49.613
   145.6,0.002248,0.003913,0.003127,-0.000343,  49.608
   145.8,0.002336,0.004069,0.003095,-0.000378,  49.595
   146.0,0.002426,0.004232,0.003073,-0.000343,  49.592
   146.2,0.002512,0.004404,0.003015,-0.000356,  49.581
   146.4,0.002614,0.004581,0.002968,-0.000356,  49.568
   146.6,0.002709,0.004773,0.002895,-0.000369,  49.563
   146.8,0.002801,0.004973,0.002829,-0.000382,  49.550
   147.0,0.002911,0.005168,0.002700,-0.000417,  49.521
   147.2,0.003020,0.005371,0.002542,-0.000443,  49.511
   147.4,0.003125,0.005581,0.002379,-0.000421,  49.495
   147.6,0.003248,0.005767,0.002255,-0.000456,  49.487
   147.8,0.003365,0.005948,0.002141,-0.000469,  49.472
   148.0,0.003484,0.006119,0.002042,-0.000460,  49.462
   148.2,0.003614,0.006288,0.001686,-0.000508,  49.444
   148.4,0.003741,0.006516,0.001225,-0.000521,  49.422
   148.6,0.003873,0.006769,0.000619,-0.000513,  49.396
   148.8,0.004017,0.007039,0.000414,-0.000561,  49.381
   149.0,0.004167,0.007303,0.000351,-0.000587,  49.365
   149.2,0.004315,0.007569,0.000418,-0.000565,  49.351
   149.4,0.004477,0.007849,0.000348,-0.000613,  49.324
   149.6,0.004640,0.008132,0.000268,-0.000626,  49.310
   149.8,0.004805,0.008422,0.000203,-0.000604,  49.294
   150.0,0.004978,0.008722,0.000083,-0.000652,  49.260
   150.2,0.005149,0.009025,-0.000062,-0.000678,  49.238
   150.4,0.005330,0.009335,-0.000237,-0.000656,  49.218
   150.6,0.005520,0.009657,-0.000397,-0.000691,  49.204
   150.8,0.005712,0.009977,-0.000582,-0.000717,  49.184
   151.0,0.005910,0.010309,-0.000777,-0.000708,  49.161
   151.2,0.006107,0.010645,-0.000923,-0.000756,  49.119
   151.4,0.006311,0.010986,-0.001038,-0.000782,  49.089
   151.6,0.006525,0.011336,-0.001149,-0.000773,  49.074
   151.8,0.006739,0.011689,-0.001360,-0.000821,  49.043
   152.0,0.006958,0.012064,-0.001615,-0.000847,  49.017
   152.2,0.007149,0.012454,-0.001919,-0.000860,  48.974
   152.4,0.007319,0.012852,-0.002136,-0.000873,  48.930
   152.6,0.007485,0.013244,-0.002321,-0.000886,  48.915
   152.8,0.007644,0.013642,-0.002514,-0.000912,  48.864
   153.0,0.007870,0.014043,-0.002790,-0.000925,  48.833
   153.2,0.008111,0.014452,-0.003103,-0.000938,  48.800
   153.4,0.008375,0.014879,-0.003452,-0.000964,  48.762
   153.6,0.008633,0.015308,-0.003743,-0.000977,  48.719
   153.8,0.008899,0.015737,-0.004008,-0.000990,  48.680
   154.0,0.009174,0.016184,-0.004264,-0.001016,  48.639
   154.2,0.009448,0.016634,-0.004539,-0.001029,  48.582
   154.4,0.009726,0.017088,-0.004824,-0.001077,  48.533
   154.6,0.010009,0.017547,-0.005123,-0.001090,  48.490
   154.8,0.010298,0.018012,-0.005362,-0.001068,  48.449
   155.0,0.010589,0.018492,-0.005577,-0.001068,  48.404
   155.2,0.010889,0.018984,-0.005771,-0.001094,  48.347
   155.4,0.011192,0.019483,-0.005935,-0.001120,  48.293
   155.6,0.011497,0.019979,-0.006426,-0.001133,  48.259
   155.8,0.011809,0.020492,-0.007034,-0.001146,  48.198
   156.0,0.012131,0.021006,-0.007760,-0.001171,  48.156
   156.2,0.012454,0.021540,-0.008078,-0.001184,  48.094
   156.4,0.012782,0.022092,-0.008275,-0.001197,  48.037
   156.6,0.013119,0.022659,-0.008340,-0.001188,  47.986
   156.8,0.013459,0.023132,-0.008576,-0.001236,  47.934
   157.0,0.013801,0.023574,-0.008841,-0.001249,  47.882
   157.2,0.014155,0.023972,-0.009136,-0.001227,  47.817
   157.4,0.014517,0.024340,-0.009500,-0.001262,  47.761
   157.6,0.014883,0.024879,-0.009921,-0.001262,  47.705
   157.8,0.015259,0.025471,-0.010390,-0.001253,  47.650
   158.0,0.015644,0.026108,-0.010830,-0.001288,  47.582
   158.2,0.016033,0.026697,-0.011299,-0.001288,  47.523
   158.4,0.016427,0.027286,-0.011766,-0.001279,  47.440
   158.6,0.016826,0.027877,-0.012191,-0.001327,  47.385
   158.8,0.017227,0.028478,-0.012626,-0.001327,  47.321
   159.0,0.017638,0.029093,-0.013035,-0.001340,  47.251
   159.2,0.018053,0.029713,-0.013460,-0.001353,  47.193
   159.4,0.018473,0.030315,-0.013900,-0.001353,  47.101
   159.6,0.018892,0.030921,-0.014343,-0.001340,  47.053
   159.8,0.019308,0.031519,-0.014758,-0.001340,  46.971
   160.0,0.019724,0.032114,-0.015163,-0.001340,  46.890
   160.2,0.020152,0.032715,-0.015558,-0.001340,  46.823
   160.4,0.020585,0.033312,-0.016509,-0.001327,  46.728
   160.6,0.021028,0.033926,-0.017714,-0.001327,  46.666
   160.8,0.021453,0.034544,-0.019176,-0.001327,  46.589
   161.0,0.021885,0.035168,-0.019681,-0.001314,  46.504
   161.2,0.022315,0.035767,-0.019844,-0.001301,  46.434
   161.4,0.022681,0.036354,-0.019652,-0.001314,  46.329
   161.6,0.023025,0.036929,-0.019910,-0.001301,  46.256
   161.8,0.023337,0.037513,-0.020221,-0.001275,  46.166
   162.0,0.023627,0.038102,-0.020605,-0.001249,  46.093
   162.2,0.024036,0.038693,-0.020991,-0.001223,  45.994
   162.4,0.024486,0.039253,-0.021419,-0.001223,  45.886
   162.6,0.024957,0.039803,-0.021891,-0.001210,  45.807
   162.8,0.025399,0.040348,-0.022318,-0.001184,  45.712
   163.0,0.025830,0.040885,-0.022755,-0.001159,  45.626
   163.2,0.026252,0.041412,-0.023211,-0.001133,  45.546
   163.4,0.026683,0.041940,-0.023695,-0.001107,  45.425
   163.6,0.027109,0.042448,-0.024200,-0.001116,  45.356
   163.8,0.027539,0.042944,-0.024749,-0.001103,  45.257
   164.0,0.027954,0.043425,-0.025162,-0.001055,  45.165
   164.2,0.028359,0.043895,-0.025542,-0.001016,  45.070
   164.4,0.028759,0.044353,-0.025864,-0.000990,  44.975
   164.6,0.029159,0.044803,-0.026147,-0.000938,  44.904
   164.8,0.029554,0.045234,-0.026650,-0.000899,  44.810
   165.0,0.029943,0.045652,-0.027193,-0.000860,  44.719
   165.2,0.030322,0.046060,-0.027803,-0.000834,  44.618
   165.4,0.030690,0.046396,-0.028429,-0.000795,  44.515
   165.6,0.031046,0.046683,-0.029094,-0.000743,  44.444
   165.8,0.031406,0.046938,-0.029795,-0.000704,  44.368
   166.0,0.031760,0.047142,-0.030288,-0.000652,  44.284
   166.2,0.032109,0.047434,-0.030712,-0.000613,  44.196
   166.4,0.032438,0.047740,-0.031062,-0.000574,  44.096
   166.6,0.032754,0.048055,-0.031449,-0.000521,  44.031
   166.8,0.033049,0.048308,-0.031807,-0.000469,  43.954
   167.0,0.033340,0.048544,-0.032155,-0.000417,  43.873
   167.2,0.033619,0.048752,-0.032552,-0.000352,  43.786
   167.4,0.033884,0.048941,-0.032952,-0.000300,  43.695
   167.6,0.034137,0.049111,-0.033363,-0.000248,  43.638
   167.8,0.034374,0.049259,-0.033734,-0.000183,  43.568
   168.0,0.034602,0.049382,-0.034086,-0.000131,  43.493
   168.2,0.034811,0.049484,-0.034413,-0.000092,  43.423
   168.4,0.034996,0.049559,-0.034677,-0.000027,  43.345
   168.6,0.035168,0.049606,-0.034903,0.000025,  43.287
   168.8,0.035328,0.049637,-0.035112,0.000077,  43.224
   169.0,0.035471,0.049639,-0.035704,0.000143,  43.171
   169.2,0.035597,0.049614,-0.036469,0.000195,  43.104
   169.4,0.035708,0.049563,-0.037435,0.000247,  43.028
   169.6,0.035803,0.049488,-0.037610,0.000299,  42.998
   169.8,0.035874,0.049389,-0.037482,0.000338,  42.940
   170.0,0.035929,0.049269,-0.037059,0.000390,  42.897
   170.2,0.035969,0.049135,-0.037024,0.000442,  42.842
   170.4,0.035983,0.048969,-0.037022,0.000481,  42.801
   170.6,0.035994,0.048780,-0.037070,0.000534,  42.758
   170.8,0.035982,0.048566,-0.037040,0.000586,  42.729
   171.0,0.035968,0.048341,-0.036985,0.000638,  42.703
   171.2,0.035940,0.048099,-0.036921,0.000677,  42.661
   171.4,0.035889,0.047839,-0.036831,0.000729,  42.640
   171.6,0.035830,0.047553,-0.036716,0.000782,  42.626
   171.8,0.035759,0.047236,-0.036592,0.000795,  42.607
   172.0,0.035656,0.046896,-0.036490,0.000834,  42.583
   172.2,0.035541,0.046545,-0.036390,0.000886,  42.570
   172.4,0.035403,0.046174,-0.036306,0.000912,  42.563
   172.6,0.035251,0.045778,-0.036151,0.000938,  42.565
   172.8,0.035091,0.045344,-0.035959,0.000977,  42.566
   173.0,0.034908,0.044893,-0.035747,0.000990,  42.571
   173.2,0.034708,0.044417,-0.035480,0.001016,  42.575
   173.4,0.034499,0.043943,-0.035175,0.001021,  42.587
   173.6,0.034278,0.043454,-0.034847,0.001034,  42.601
   173.8,0.034035,0.042965,-0.034610,0.001082,  42.613
   174.0,0.033781,0.042454,-0.034405,0.001108,  42.633
   174.2,0.033520,0.041926,-0.034235,0.001134,  42.670
   174.4,0.033226,0.041390,-0.034083,0.001160,  42.698
   174.6,0.032921,0.040924,-0.033756,0.001186,  42.719
   174.8,0.032601,0.040476,-0.033366,0.001212,  42.767
   175.0,0.032268,0.040065,-0.032935,0.001225,  42.795
   175.2,0.031933,0.039674,-0.032512,0.001252,  42.836
   175.4,0.031587,0.039130,-0.032083,0.001265,  42.891
   175.6,0.031231,0.038539,-0.031653,0.001278,  42.921
   175.8,0.030867,0.037902,-0.031199,0.001291,  42.979
   176.0,0.030499,0.037295,-0.030740,0.001291,  43.023
   176.2,0.030102,0.036675,-0.030274,0.001278,  43.082
   176.4,0.029692,0.036059,-0.029794,0.001278,  43.145
   176.6,0.029268,0.035440,-0.029302,0.001291,  43.199
   176.8,0.028850,0.034816,-0.028814,0.001291,  43.249
   177.0,0.028434,0.034186,-0.028271,0.001291,  43.325
   177.2,0.028006,0.033549,-0.027685,0.001304,  43.392
   177.4,0.027570,0.032902,-0.027094,0.001291,  43.473
   177.6,0.027130,0.032245,-0.026493,0.001256,  43.533
   177.8,0.026686,0.031609,-0.025870,0.001269,  43.615
   178.0,0.026235,0.030977,-0.025247,0.001256,  43.695
   178.2,0.025781,0.030347,-0.024694,0.001208,  43.765
   178.4,0.025329,0.029715,-0.024155,0.001195,  43.859
   178.6,0.024865,0.029086,-0.023659,0.001203,  43.930
   178.8,0.024405,0.028462,-0.023065,0.001190,  44.021
   179.0,0.023937,0.027838,-0.022437,0.001177,  44.108
   179.2,0.023480,0.027210,-0.021780,0.001164,  44.181
   179.4,0.023027,0.026594,-0.021150,0.001164,  44.290
   179.6,0.022574,0.025985,-0.020524,0.001151,  44.368
   179.8,0.022186,0.025385,-0.019892,0.001112,  44.460
   180.0,0.021819,0.024789,-0.019312,0.001134,  44.548
   180.2,0.021495,0.024186,-0.018749,0.001121,  44.642
   180.4,0.021202,0.023595,-0.018194,0.001082,  44.759
   180.6,0.020781,0.023007,-0.017616,0.001091,  44.837
   180.8,0.020331,0.022419,-0.017051,0.001064,  44.919
   181.0,0.019854,0.021840,-0.016486,0.001025,  45.016
   181.2,0.019410,0.021266,-0.015905,0.000977,  45.111
   181.4,0.018969,0.020687,-0.015330,0.000951,  45.226
   181.6,0.018540,0.020110,-0.014753,0.000960,  45.300
   181.8,0.018102,0.019530,-0.014128,0.000947,  45.397
   182.0,0.017674,0.018980,-0.013488,0.000899,  45.496
   182.2,0.017252,0.018439,-0.012833,0.000921,  45.587
   182.4,0.016826,0.017915,-0.012259,0.000908,  45.689
   182.6,0.016410,0.017395,-0.011712,0.000895,  45.761
   182.8,0.016003,0.016888,-0.011212,0.000882,  45.857
   183.0,0.015584,0.016391,-0.010978,0.000869,  45.949
   183.2,0.015169,0.015891,-0.010907,0.000821,  46.038
   183.4,0.014764,0.015405,-0.010991,0.000795,  46.136
   183.6,0.014362,0.014919,-0.011233,0.000803,  46.210
   183.8,0.013970,0.014513,-0.010635,0.000755,  46.303
   184.0,0.013593,0.014157,-0.009787,0.000729,  46.390
   184.2,0.013209,0.013831,-0.008712,0.000751,  46.478
   184.4,0.012834,0.013561,-0.008007,0.000703,  46.570
   184.6,0.012471,0.013161,-0.007373,0.000677,  46.643
   184.8,0.012105,0.012741,-0.006807,0.000686,  46.727
   185.0,0.011755,0.012297,-0.006188,0.000625,  46.797
   185.2,0.011414,0.011894,-0.005599,0.000599,  46.879
   185.4,0.011069,0.011501,-0.004992,0.000608,  46.981
   185.6,0.010742,0.011123,-0.004446,0.000560,  47.050
   185.8,0.010423,0.010751,-0.003928,0.000534,  47.115
   186.0,0.010106,0.010389,-0.003429,0.000543,  47.197
   186.2,0.009799,0.010042,-0.002955,0.000495,  47.280
   186.4,0.009493,0.009704,-0.002505,0.000468,  47.362
   186.6,0.009199,0.009376,-0.002080,0.000490,  47.428
   186.8,0.008919,0.009064,-0.001655,0.000442,  47.492
   187.0,0.008644,0.008755,-0.001249,0.000416,  47.566
   187.2,0.008372,0.008458,-0.000885,0.000412,  47.644
   187.4,0.008114,0.008166,-0.000724,0.000364,  47.719
   187.6,0.007856,0.007881,-0.000698,0.000338,  47.775
   187.8,0.007612,0.007605,-0.000804,0.000347,  47.840
   188.0,0.007374,0.007342,-0.000440,0.000299,  47.914
   188.2,0.007143,0.007085,0.000084,0.000286,  47.976
   188.4,0.006921,0.006840,0.000785,0.000308,  48.041
   188.6,0.006701,0.006613,0.001230,0.000260,  48.097
   188.8,0.006487,0.006381,0.001635,0.000234,  48.152
   189.0,0.006308,0.006159,0.001996,0.000256,  48.197
   189.2,0.006144,0.005944,0.002407,0.000208,  48.264
   189.4,0.006011,0.005734,0.002806,0.000195,  48.323
   189.6,0.005897,0.005531,0.003223,0.000204,  48.370
   189.8,0.005729,0.005337,0.003553,0.000169,  48.416
   190.0,0.005548,0.005145,0.003812,0.000143,  48.469
   190.2,0.005358,0.004960,0.004041,0.000165,  48.511
   190.4,0.005186,0.004780,0.004148,0.000130,  48.562
   190.6,0.005024,0.004608,0.004158,0.000130,  48.605
   190.8,0.004875,0.004445,0.004093,0.000151,  48.642
   191.0,0.004720,0.004292,0.004199,0.000151,  48.678
   191.2,0.004573,0.004142,0.004352,0.000116,  48.731
   191.4,0.004436,0.003996,0.004550,0.000138,  48.776
   191.6,0.004294,0.003860,0.004859,0.000138,  48.798
   191.8,0.004161,0.003726,0.005229,0.000138,  48.846
   192.0,0.004034,0.003599,0.005675,0.000125,  48.873
   192.2,0.003905,0.003467,0.005658,0.000112,  48.902
   192.4,0.003783,0.003341,0.005457,0.000064,  48.934
   192.6,0.003672,0.003232,0.005042,0.000064,  48.971
   192.8,0.003557,0.003124,0.004451,0.000099,  49.000
   193.0,0.003451,0.003014,0.004713,0.000051,  49.023
   193.2,0.003353,0.002914,0.005200,0.000051,  49.047
   193.4,0.003249,0.002821,0.005910,0.000086,  49.089
   193.6,0.003158,0.002742,0.006300,0.000064,  49.106
   193.8,0.003072,0.002666,0.006650,0.000038,  49.129
   194.0,0.002982,0.002606,0.006950,0.000047,  49.149
   194.2,0.002904,0.002553,0.007218,0.000012,  49.166
   194.4,0.002839,0.002478,0.007450,0.000034,  49.207
   194.6,0.002756,0.002403,0.007658,0.000043,  49.216
   194.8,0.002681,0.002322,0.007773,0.000008,  49.236
   195.0,0.002608,0.002248,0.007843,0.000043,  49.252
   195.2,0.002536,0.002185,0.007841,0.000030,  49.269
   195.4,0.002477,0.002119,0.007980,-0.000018,  49.290
   195.6,0.002410,0.002053,0.008156,0.000017,  49.317
   195.8,0.002345,0.001995,0.008346,0.000017,  49.331
   196.0,0.002292,0.001933,0.008465,-0.000031,  49.347
   196.2,0.002237,0.001881,0.008549,0.000004,  49.362
   196.4,0.002180,0.001830,0.008607,0.000017,  49.374
   196.6,0.002130,0.001788,0.008670,-0.000018,  49.381
   196.8,0.002086,0.001738,0.008712,0.000017,  49.392
   197.0,0.002032,0.001696,0.008749,0.000004,  49.405
   197.2,0.001989,0.001659,0.008791,-0.000018,  49.414
   197.4,0.001951,0.001619,0.008823,0.000017,  49.425
   197.6,0.001905,0.001581,0.008860,0.000004,  49.446
   197.8,0.001865,0.001543,0.008908,-0.000018,  49.453
   198.0,0.001834,0.001509,0.008945,0.000004,  49.468
   198.2,0.001802,0.001479,0.008972,-0.000022,  49.476
   198.4,0.001770,0.001450,0.008998,-0.000044,  49.481
   198.6,0.001752,0.001418,0.009015,-0.000009,  49.491
   198.8,0.001731,0.001392,0.009025,-0.000022,  49.497
   199.0,0.001704,0.001365,0.009030,-0.000044,  49.503
   199.2,0.001678,0.001338,0.009036,-0.000009,  49.507
   199.4,0.001649,0.001310,0.009042,-0.000022,  49.518
   199.6,0.001619,0.001289,0.009061,-0.000044,  49.521
   199.8,0.001592,0.001265,0.009098,-0.000009,  49.526
   200.0,0.001577,0.001243,0.009134,-0.000022,  49.531
   200.2,0.001550,0.001227,0.009190,-0.000044,  49.539
   200.4,0.001526,0.001207,0.009246,-0.000009,  49.547
   200.6,0.001511,0.001184,0.009313,-0.000022,  49.568
   200.8,0.001486,0.001166,0.009318,-0.000022,  49.570
   201.0,0.001468,0.001142,0.009278,-0.000022,  49.577
   201.2,0.001458,0.001125,0.009196,-0.000057,  49.584
   201.4,0.001436,0.001110,0.009165,-0.000022,  49.586
   201.6,0.001418,0.001090,0.009129,-0.000022,  49.588
   201.8,0.001403,0.001074,0.009114,-0.000022,  49.594
   202.0,0.001383,0.001060,0.009093,-0.000022,  49.595
   202.2,0.001367,0.001046,0.009082,-0.000044,  49.599
   202.4,0.001358,0.001035,0.009078,-0.000022,  49.606
   202.6,0.001338,0.001025,0.009067,-0.000035,  49.606
   202.8,0.001323,0.001018,0.008912,-0.000057,  49.610
   203.0,0.001316,0.001008,0.008702,-0.000035,  49.613
   203.2,0.001299,0.000999,0.008420,-0.000035,  49.611
   203.4,0.001288,0.000986,0.008450,-0.000057,  49.618
   203.6,0.001278,0.000979,0.008577,-0.000035,  49.617
   203.8,0.001267,0.000967,0.008823,-0.000035,  49.624
   204.0,0.001256,0.000950,0.008849,-0.000057,  49.626
   204.2,0.001247,0.000939,0.008802,-0.000070,  49.631
   204.4,0.001233,0.000929,0.008706,-0.000070,  49.642
   204.6,0.001222,0.000921,0.008736,-0.000105,  49.640
   204.8,0.001220,0.000909,0.008786,-0.000105,  49.645
   205.0,0.001209,0.000903,0.008883,-0.000083,  49.643
   205.2,0.001198,0.000902,0.008841,-0.000118,  49.647
   205.4,0.001194,0.000889,0.008759,-0.000105,  49.649
   205.6,0.001182,0.000881,0.008626,-0.000083,  49.651
   205.8,0.001172,0.000876,0.008625,-0.000118,  49.654
   206.0,0.001168,0.000863,0.008671,-0.000105,  49.656
   206.2,0.001151,0.000856,0.008772,-0.000083,  49.658
   206.4,0.001150,0.000852,0.008756,-0.000118,  49.657
   206.6,0.001150,0.000842,0.008715,-0.000118,  49.658
   206.8,0.001135,0.000836,0.008628,-0.000096,  49.661
   207.0,0.001130,0.000834,0.008611,-0.000131,  49.656
   207.2,0.001121,0.000826,0.008616,-0.000131,  49.659
   207.4,0.001120,0.000820,0.008610,-0.000096,  49.663
   207.6,0.001118,0.000816,0.008573,-0.000131,  49.663
   207.8,0.001111,0.000812,0.008531,-0.000118,  49.667
   208.0,0.001117,0.000806,0.008464,-0.000083,  49.665
   208.2,0.001117,0.000800,0.008457,-0.000118,  49.667
   208.4,0.001104,0.000796,0.008476,-0.000105,  49.668
   208.6,0.001101,0.000790,0.008511,-0.000083,  49.662
   208.8,0.001094,0.000783,0.008470,-0.000105,  49.662
   209.0,0.001088,0.000779,0.008398,-0.000105,  49.665
   209.2,0.001083,0.000771,0.008281,-0.000070,  49.668
   209.4,0.001076,0.000763,0.008269,-0.000070,  49.665
   209.6,0.001074,0.000759,0.008284,-0.000092,  49.666
   209.8,0.001068,0.000751,0.008324,-0.000057,  49.666
   210.0,0.001059,0.000750,0.008329,-0.000070,  49.668
   210.2,0.001057,0.000741,0.008317,-0.000057,  49.666
   210.4,0.001051,0.000737,0.008323,-0.000057,  49.666
   210.6,0.001042,0.000738,0.008302,-0.000070,  49.669
   210.8,0.001037,0.000731,0.008204,-0.000092,  49.668
   211.0,0.001038,0.000727,0.008065,-0.000105,  49.668
   211.2,0.001027,0.000726,0.007876,-0.000070,  49.670
   211.4,0.001024,0.000722,0.007804,-0.000092,  49.667
   211.6,0.001022,0.000715,0.007762,-0.000105,  49.665
   211.8,0.001012,0.000711,0.007762,-0.000070,  49.669
   212.0,0.001014,0.000712,0.007730,-0.000092,  49.670
   212.2,0.001024,0.000706,0.007690,-0.000105,  49.665
   212.4,0.001018,0.000708,0.007633,-0.000070,  49.669
   212.6,0.001010,0.000704,0.007647,-0.000092,  49.668
   212.8,0.001011,0.000696,0.007697,-0.000105,  49.670
   213.0,0.001005,0.000690,0.007762,-0.000070,  49.669
   213.2,0.000999,0.000684,0.007740,-0.000092,  49.667
   213.4,0.000986,0.000680,0.007714,-0.000105,  49.668
   213.6,0.000977,0.000676,0.007652,-0.000070,  49.667
   213.8,0.000981,0.000675,0.007615,-0.000092,  49.667
   214.0,0.000978,0.000666,0.007600,-0.000105,  49.665
   214.2,0.000972,0.000664,0.007590,-0.000070,  49.669
   214.4,0.000966,0.000662,0.007548,-0.000105,  49.669
   214.6,0.000966,0.000660,0.007491,-0.000105,  49.665
   214.8,0.000957,0.000658,0.007419,-0.000083,  49.671
   215.0,0.000949,0.000654,0.007377,-0.000118,  49.667
   215.2,0.000948,0.000654,0.007356,-0.000105,  49.669
   215.4,0.000939,0.000652,0.007347,-0.000083,  49.666
   215.6,0.000936,0.000648,0.007321,-0.000118,  49.666
   215.8,0.000934,0.000644,0.007279,-0.000105,  49.666
   216.0,0.000927,0.000648,0.007233,-0.000083,  49.672
   216.2,0.000934,0.000649,0.007227,-0.000118,  49.668
   216.4,0.000928,0.000645,0.007241,-0.000070,  49.668
   216.6,0.000926,0.000643,0.007270,-0.000048,  49.668
   216.8,0.000923,0.000647,0.007218,-0.000083,  49.668
   217.0,0.000918,0.000643,0.007152,-0.000035,  49.669
   217.2,0.000919,0.000641,0.007055,-0.000048,  49.675
   217.4,0.000919,0.000641,0.007034,-0.000070,  49.674
   217.6,0.000919,0.000638,0.007033,-0.000035,  49.670
   217.8,0.000915,0.000632,0.007032,-0.000035,  49.671
   218.0,0.000909,0.000625,0.006969,-0.000057,  49.670
   218.2,0.000915,0.000619,0.006908,-0.000022,  49.670
   218.4,0.000910,0.000613,0.006812,-0.000022,  49.671
   218.6,0.000903,0.000609,0.006780,-0.000022,  49.669
   218.8,0.000907,0.000601,0.006764,-0.000022,  49.669
   219.0,0.000902,0.000597,0.006769,-0.000057,  49.672
   219.2,0.000893,0.000596,0.006472,-0.000035,  49.668
   219.4,0.000894,0.000589,0.006011,-0.000022,  49.670
   219.6,0.000889,0.000587,0.005441,-0.000022,  49.668
   219.8,0.000877,0.000588,0.004704,-0.000035,  49.665
   220.0,0.000875,0.000584,0.004784,-0.000070,  49.661
   220.2,0.000870,0.000575,0.005099,-0.000048,  49.663
   220.4,0.000861,0.000580,0.005643,-0.000061,  49.663
   220.6,0.000862,0.000579,0.005841,-0.000096,  49.665
   220.8,0.000857,0.000578,0.005962,-0.000048,  49.663
   221.0,0.000848,0.000576,0.006028,-0.000048,  49.666
   221.2,0.000852,0.000571,0.006088,-0.000083,  49.663
   221.4,0.000846,0.000568,0.006135,-0.000035,  49.665
   221.6,0.000837,0.000564,0.006130,-0.000048,  49.659
   221.8,0.000836,0.000557,0.006175,-0.000070,  49.663
   222.0,0.000831,0.000553,0.006220,-0.000035,  49.663
   222.2,0.000819,0.000549,0.006276,-0.000035,  49.664
   222.4,0.000820,0.000544,0.006132,-0.000057,  49.663
   222.6,0.000809,0.000537,0.005877,-0.000035,  49.666
   222.8,0.000798,0.000531,0.005530,-0.000035,  49.670
   223.0,0.000802,0.000530,0.005533,-0.000057,  49.668
   223.2,0.000799,0.000528,0.005680,-0.000035,  49.670
   223.4,0.000790,0.000521,0.005954,-0.000035,  49.672
   223.6,0.000788,0.000517,0.005881,-0.000070,  49.674
   223.8,0.000783,0.000515,0.005717,-0.000048,  49.677
   224.0,0.000771,0.000514,0.005457,-0.000026,  49.672
   224.2,0.000772,0.000515,0.005431,-0.000061,  49.674
   224.4,0.000771,0.000515,0.005457,-0.000061,  49.674
   224.6,0.000759,0.000510,0.005549,-0.000026,  49.684
   224.8,0.000757,0.000512,0.005558,-0.000061,  49.683
   225.0,0.000763,0.000517,0.005568,-0.000048,  49.687
   225.2,0.000760,0.000513,0.005562,-0.000013,  49.682
   225.4,0.000760,0.000512,0.005611,-0.000048,  49.690
   225.6,0.000760,0.000512,0.005676,-0.000035,  49.692
   225.8,0.000758,0.000512,0.005747,-0.000048,  49.694
   226.0,0.000758,0.000507,0.005771,-0.000070,  49.696
   226.2,0.000758,0.000501,0.005780,-0.000035,  49.699
   226.4,0.000755,0.000497,0.005770,-0.000035,  49.717
   226.6,0.000749,0.000497,0.005728,-0.000057,  49.715
   226.8,0.000752,0.000497,0.005656,-0.000035,  49.718
   227.0,0.000754,0.000491,0.005581,-0.000035,  49.714
   227.2,0.000747,0.000493,0.005580,-0.000035,  49.722
   227.4,0.000751,0.000495,0.005610,-0.000022,  49.722
   227.6,0.000748,0.000484,0.005660,-0.000070,  49.725
   227.8,0.000739,0.000484,0.005669,-0.000048,  49.722
   228.0,0.000743,0.000482,0.005668,-0.000035,  49.725
   228.2,0.000740,0.000476,0.005668,-0.000035,  49.728
   228.4,0.000731,0.000479,0.005663,-0.000035,  49.726
   228.6,0.000732,0.000479,0.005642,-0.000057,  49.723
   228.8,0.000730,0.000473,0.005617,-0.000035,  49.733
   229.0,0.000721,0.000469,0.005586,-0.000035,  49.730
   229.2,0.000724,0.000467,0.005534,-0.000057,  49.728
   229.4,0.000722,0.000458,0.005472,-0.000035,  49.727
   229.6,0.000710,0.000457,0.005396,-0.000035,  49.728
   229.8,0.000711,0.000463,0.005371,-0.000057,  49.726
   230.0,0.000706,0.000463,0.005339,-0.000035,  49.734
   230.2,0.000697,0.000463,0.005314,-0.000035,  49.733
   230.4,0.000701,0.000464,0.005284,-0.000057,  49.732
   230.6,0.000698,0.000459,0.005233,-0.000035,  49.735
   230.8,0.000689,0.000459,0.005162,-0.000035,  49.737
   231.0,0.000690,0.000457,0.005156,-0.000057,  49.737
   231.2,0.000688,0.000453,0.005171,-0.000035,  49.736
   231.4,0.000681,0.000452,0.005190,-0.000035,  49.737
   231.6,0.000685,0.000449,0.005174,-0.000057,  49.740
   231.8,0.000682,0.000447,0.005165,-0.000035,  49.738
   232.0,0.000673,0.000444,0.005108,-0.000035,  49.741
   232.2,0.000677,0.000445,0.005082,-0.000057,  49.744
   232.4,0.000672,0.000441,0.005077,-0.000035,  49.743
   232.6,0.000665,0.000441,0.005056,-0.000035,  49.746
   232.8,0.000666,0.000439,0.005015,-0.000057,  49.745
   233.0,0.000664,0.000433,0.004969,-0.000035,  49.743
   233.2,0.000661,0.000435,0.004907,-0.000035,  49.746
   233.4,0.000657,0.000436,0.004872,-0.000057,  49.750
   233.6,0.000658,0.000429,0.004830,-0.000035,  49.747
   233.8,0.000656,0.000426,0.004790,-0.000035,  49.747
   234.0,0.000656,0.000424,0.004799,-0.000057,  49.753
   234.2,0.000651,0.000418,0.004833,-0.000035,  49.748
   234.4,0.000654,0.000414,0.004877,-0.000035,  49.747
   234.6,0.000652,0.000414,0.004846,-0.000057,  49.746
   234.8,0.000643,0.000414,0.004769,-0.000035,  49.755
   235.0,0.000644,0.000410,0.004678,-0.000035,  49.751
   235.2,0.000641,0.000410,0.004474,-0.000057,  49.755
   235.4,0.000632,0.000412,0.004177,-0.000035,  49.749
   235.6,0.000633,0.000407,0.003828,-0.000035,  49.758
   235.8,0.000631,0.000412,0.003767,-0.000035,  49.756
   236.0,0.000622,0.000410,0.003796,-0.000022,  49.756
   236.2,0.000625,0.000406,0.003944,-0.000057,  49.756
   236.4,0.000625,0.000405,0.003989,-0.000022,  49.757
   236.6,0.000616,0.000406,0.004050,-0.000022,  49.756
   236.8,0.000615,0.000402,0.004099,-0.000035,  49.756
   237.0,0.000612,0.000399,0.004160,-0.000013,  49.757
   237.2,0.000603,0.000397,0.004159,-0.000035,  49.758
   237.4,0.000604,0.000400,0.004159,-0.000035,  49.760
   237.6,0.000603,0.000392,0.004133,0.000000,  49.762
   237.8,0.000602,0.000393,0.004168,-0.000022,  49.759
   238.0,0.000608,0.000385,0.004228,-0.000035,  49.759
   238.2,0.000605,0.000383,0.004297,0.000000,  49.761
   238.4,0.000605,0.000383,0.004281,-0.000022,  49.763
   238.6,0.000595,0.000377,0.004240,-0.000022,  49.763
   238.8,0.000586,0.000373,0.004164,-0.000022,  49.766
   239.0,0.000577,0.000369,0.004148,-0.000044,  49.763
   239.2,0.000575,0.000362,0.004142,-0.000009,  49.761
   239.4,0.000566,0.000358,0.004157,-0.000022,  49.756
   239.6,0.000554,0.000357,0.004166,-0.000044,  49.756
   239.8,0.000558,0.000358,0.004176,-0.000009,  49.760
   240.0,0.000555,0.000356,0.004180,-0.000022,  49.760
   240.2,0.000550,0.000355,0.004168,-0.000044,  49.755
   240.4,0.000545,0.000353,0.004157,-0.000009,  49.760
   240.6,0.000542,0.000356,0.004136,-0.000022,  49.758
   240.8,0.000537,0.000349,0.004080,-0.000044,  49.758
   241.0,0.000540,0.000345,0.004014,-0.000022,  49.755
   241.2,0.000540,0.000345,0.003908,-0.000035,  49.754
   241.4,0.000531,0.000343,0.003877,-0.000057,  49.758
   241.6,0.000526,0.000338,0.003861,-0.000035,  49.752
   241.8,0.000517,0.000338,0.003860,-0.000035,  49.756
   242.0,0.000517,0.000341,0.003849,-0.000057,  49.760
   242.2,0.000514,0.000334,0.003829,-0.000035,  49.758
   242.4,0.000521,0.000334,0.003808,-0.000035,  49.758
   242.6,0.000521,0.000337,0.003777,-0.000057,  49.752
   242.8,0.000518,0.000330,0.003731,-0.000022,  49.755
   243.0,0.000518,0.000328,0.003685,-0.000022,  49.753
   243.2,0.000521,0.000328,0.003628,-0.000044,  49.749
   243.4,0.000518,0.000326,0.003563,-0.000009,  49.750
   243.6,0.000513,0.000323,0.003487,-0.000022,  49.751
   243.8,0.000513,0.000324,0.003416,-0.000022,  49.749
   244.0,0.000510,0.000322,0.003340,-0.000022,  49.749
   244.2,0.000502,0.000319,0.003264,-0.000057,  49.748
   244.4,0.000500,0.000318,0.003254,-0.000022,  49.742
   244.6,0.000500,0.000316,0.003273,-0.000022,  49.744
   244.8,0.000494,0.000313,0.003318,-0.000022,  49.744
   245.0,0.000494,0.000311,0.003388,-0.000022,  49.744
   245.2,0.000485,0.000305,0.003372,-0.000044,  49.742
   245.4,0.000483,0.000298,0.003341,-0.000009,  49.741
   245.6,0.000476,0.000303,0.003295,-0.000022,  49.740
   245.8,0.000474,0.000301,0.003284,-0.000044,  49.742
   246.0,0.000466,0.000299,0.003258,-0.000009,  49.740
   246.2,0.000466,0.000295,0.003247,-0.000022,  49.743
   246.4,0.000466,0.000301,0.003237,-0.000044,  49.741
   246.6,0.000470,0.000296,0.003221,-0.000009,  49.740
   246.8,0.000467,0.000296,0.003200,-0.000022,  49.741
   247.0,0.000458,0.000301,0.003190,-0.000044,  49.736
   247.2,0.000459,0.000296,0.003184,-0.000009,  49.738
   247.4,0.000456,0.000293,0.003174,-0.000022,  49.743
   247.6,0.000450,0.000291,0.003189,-0.000044,  49.743
   247.8,0.000454,0.000285,0.003198,-0.000009,  49.740
   248.0,0.000451,0.000280,0.003213,-0.000022,  49.741
   248.2,0.000442,0.000283,0.003232,-0.000044,  49.737
   248.4,0.000443,0.000281,0.003262,-0.000022,  49.740
   248.6,0.000441,0.000277,0.003298,0.000000,  49.740
   248.8,0.000432,0.000275,0.003271,-0.000022,  49.742
   249.0,0.000435,0.000275,0.003235,-0.000035,  49.740
   249.2,0.000435,0.000276,0.003180,0.000000,  49.741
   249.4,0.000426,0.000276,0.003155,-0.000022,  49.740
   249.6,0.000425,0.000276,0.003119,-0.000035,  49.736
   249.8,0.000422,0.000276,0.003094,0.000000,  49.735
   250.0,0.000416,0.000276,0.003109,-0.000022,  49.739
   250.2,0.000417,0.000274,0.003118,-0.000035,  49.731
   250.4,0.000417,0.000272,0.003142,0.000000,  49.735
   250.6,0.000414,0.000270,0.003092,-0.000035,  49.734
   250.8,0.000421,0.000270,0.002991,-0.000035,  49.728
   251.0,0.000418,0.000264,0.002845,-0.000013,  49.733
   251.2,0.000418,0.000261,0.002845,-0.000035,  49.729
   251.4,0.000415,0.000261,0.002879,-0.000035,  49.729
   251.6,0.000413,0.000259,0.002943,0.000000,  49.730
   251.8,0.000413,0.000255,0.002957,-0.000022,  49.731
   252.0,0.000413,0.000260,0.002966,-0.000022,  49.726
   252.2,0.000410,0.000264,0.002956,0.000013,  49.723
   252.4,0.000407,0.000265,0.002799,-0.000009,  49.725
   252.6,0.000405,0.000265,0.002566,-0.000009,  49.723
   252.8,0.000402,0.000265,0.002254,0.000013,  49.726
   253.0,0.000399,0.000259,0.002238,0.000013,  49.721
   253.2,0.000399,0.000252,0.002317,0.000013,  49.718
   253.4,0.000399,0.000247,0.002502,0.000013,  49.715
   253.6,0.000402,0.000252,0.002320,0.000000,  49.717
   253.8,0.000397,0.000250,0.002012,0.000013,  49.718
   254.0,0.000392,0.000242,0.001580,0.000013,  49.716
   254.2,0.000392,0.000244,0.001520,0.000000,  49.716
   254.4,0.000386,0.000242,0.001589,-0.000022,  49.718
   254.6,0.000381,0.000238,0.001774,-0.000035,  49.715
   254.8,0.000378,0.000237,0.002085,0.000000,  49.720
   255.0,0.000376,0.000237,0.002004,-0.000022,  49.716
   255.2,0.000373,0.000233,0.001843,-0.000022,  49.720
   255.4,0.000370,0.000231,0.001597,0.000013,  49.720
   255.6,0.000365,0.000227,0.001632,-0.000009,  49.719
   255.8,0.000363,0.000227,0.001758,-0.000022,  49.724
   256.0,0.000363,0.000230,0.001958,0.000000,  49.722
   256.2,0.000360,0.000231,0.002032,-0.000022,  49.723
   256.4,0.000357,0.000228,0.002088,-0.000035,  49.726
   256.6,0.000355,0.000224,0.002114,0.000000,  49.724
   256.8,0.000352,0.000226,0.002108,-0.000022,  49.726
   257.0,0.000347,0.000226,0.002078,-0.000035,  49.731
   257.2,0.000344,0.000226,0.002023,0.000000,  49.730
   257.4,0.000341,0.000226,0.002038,-0.000022,  49.728
   257.6,0.000336,0.000226,0.002057,-0.000035,  49.727
   257.8,0.000333,0.000226,0.002108,0.000000,  49.725
   258.0,0.000333,0.000224,0.002098,-0.000022,  49.728
   258.2,0.000331,0.000223,0.002062,-0.000035,  49.728
   258.4,0.000328,0.000220,0.002007,0.000000,  49.730
   258.6,0.000328,0.000222,0.001986,-0.000022,  49.731
   258.8,0.000328,0.000218,0.001970,-0.000035,  49.729
   259.0,0.000331,0.000211,0.001956,0.000000,  49.732
   259.2,0.000331,0.000216,0.001975,-0.000022,  49.728
   259.4,0.000328,0.000217,0.002014,-0.000035,  49.732
   259.6,0.000331,0.000211,0.002063,0.000000,  49.733
   259.8,0.000328,0.000214,0.002063,-0.000022,  49.732
   260.0,0.000323,0.000212,0.002027,-0.000035,  49.735
   260.2,0.000327,0.000215,0.001956,0.000000,  49.734
   260.4,0.000320,0.000211,0.001921,-0.000022,  49.735
   260.6,0.000327,0.000207,0.001901,-0.000035,  49.733
   260.8,0.000327,0.000208,0.001866,0.000000,  49.735
   261.0,0.000331,0.000212,0.001879,-0.000022,  49.738
   261.2,0.000337,0.000205,0.001924,-0.000035,  49.735
   261.4,0.000343,0.000203,0.002004,-0.000035,  49.733
   261.6,0.000343,0.000205,0.001998,-0.000057,  49.738
   261.8,0.000340,0.000202,0.001973,-0.000022,  49.739
   262.0,0.000328,0.000199,0.001918,-0.000022,  49.734
   262.2,0.000318,0.000207,0.001918,-0.000044,  49.735
   262.4,0.000321,0.000207,0.001912,-0.000009,  49.736
   262.6,0.000317,0.000202,0.001912,-0.000022,  49.735
   262.8,0.000313,0.000200,0.001917,-0.000022,  49.738
   263.0,0.000307,0.000198,0.001911,-0.000022,  49.736
   263.2,0.000311,0.000196,0.001911,-0.000022,  49.741
   263.4,0.000313,0.000197,0.001880,0.000013,  49.740
   263.6,0.000304,0.000195,0.001850,0.000013,  49.740
   263.8,0.000308,0.000186,0.001796,0.000013,  49.733
   264.0,0.000308,0.000180,0.001538,0.000013,  49.741
   264.2,0.000297,0.000176,0.001170,-0.000009,  49.738
   264.4,0.000298,0.000177,0.000698,-0.000009,  49.736
   264.6,0.000295,0.000172,0.000116,0.000013,  49.735
   264.8,0.000286,0.000170,0.000152,-0.000009,  49.739
   265.0,0.000290,0.000167,0.000362,-0.000009,  49.738
   265.2,0.000287,0.000167,0.000759,0.000013,  49.740
   265.4,0.000275,0.000169,0.000953,-0.000009,  49.738
   265.6,0.000279,0.000161,0.001129,-0.000009,  49.734
   265.8,0.000279,0.000161,0.001289,0.000013,  49.739
   266.0,0.000270,0.000163,0.001358,-0.000009,  49.736
   266.2,0.000274,0.000161,0.001379,-0.000009,  49.738
   266.4,0.000271,0.000163,0.001339,0.000013,  49.735
   266.6,0.000269,0.000158,0.001354,-0.000009,  49.730
   266.8,0.000270,0.000153,0.001364,-0.000022,  49.736
   267.0,0.000270,0.000151,0.001385,0.000000,  49.735
   267.2,0.000258,0.000149,0.001424,-0.000022,  49.734
   267.4,0.000255,0.000149,0.001483,-0.000035,  49.737
   267.6,0.000255,0.000147,0.001557,0.000000,  49.737
   267.8,0.000246,0.000147,0.001516,-0.000035,  49.734
   268.0,0.000248,0.000145,0.001430,0.000000,  49.729
   268.2,0.000248,0.000142,0.001306,0.000022,  49.733
   268.4,0.000241,0.000142,0.001285,-0.000013,  49.731
   268.6,0.000239,0.000142,0.001284,0.000000,  49.732
   268.8,0.000236,0.000138,0.001308,-0.000013,  49.732
   269.0,0.000236,0.000142,0.001317,-0.000048,  49.728
   269.2,0.000233,0.000144,0.001331,-0.000013,  49.725
   269.4,0.000233,0.000137,0.001351,0.000009,  49.727
   269.6,0.000228,0.000142,0.001330,-0.000026,  49.720
   269.8,0.000225,0.000142,0.001270,-0.000013,  49.721
   270.0,0.000223,0.000133,0.001194,-0.000013,  49.721
   270.2,0.000216,0.000134,0.001013,-0.000048,  49.718
   270.4,0.000223,0.000132,0.000751,-0.000048,  49.718
   270.6,0.000223,0.000130,0.000420,-0.000026,  49.715
   270.8,0.000223,0.000132,0.000374,-0.000061,  49.710
   271.0,0.000223,0.000132,0.000429,-0.000061,  49.710
   271.2,0.000223,0.000130,0.000595,-0.000026,  49.709
   271.4,0.000223,0.000132,0.000639,-0.000048,  49.708
   271.6,0.000225,0.000130,0.000674,-0.000048,  49.705
   271.8,0.000223,0.000132,0.000719,0.000000,  49.703
   272.0,0.000223,0.000128,0.000749,0.000000,  49.706
   272.2,0.000220,0.000124,0.000758,0.000013,  49.698
   272.4,0.000221,0.000128,0.000758,0.000013,  49.681
   272.6,0.000219,0.000124,0.000787,0.000000,  49.679
   272.8,0.000210,0.000121,0.000821,0.000013,  49.677
   273.0,0.000213,0.000123,0.000866,0.000035,  49.677
   273.2,0.000211,0.000125,0.000926,0.000009,  49.674
   273.4,0.000199,0.000124,0.000922,-0.000026,  49.673
   273.6,0.000203,0.000124,0.000876,0.000009,  49.667
   273.8,0.000200,0.000125,0.000811,0.000009,  49.673
   274.0,0.000191,0.000127,0.000444,-0.000026,  49.666
   274.2,0.000195,0.000124,-0.000083,-0.000013,  49.671
   274.4,0.000192,0.000124,-0.000778,-0.000013,  49.673
   274.6,0.000190,0.000127,-0.000759,-0.000048,  49.670
   274.8,0.000196,0.000124,-0.000464,-0.000035,  49.662
   275.0,0.000199,0.000122,0.000097,-0.000013,  49.662
   275.2,0.000196,0.000125,0.000236,-0.000048,  49.663
   275.4,0.000196,0.000122,0.000307,-0.000035,  49.664
   275.6,0.000199,0.000122,0.000303,-0.000013,  49.664
   275.8,0.000196,0.000126,0.000393,-0.000035,  49.661
   276.0,0.000196,0.000123,0.000487,-0.000035,  49.664
   276.2,0.000199,0.000117,0.000602,0.000000,  49.664
   276.4,0.000199,0.000124,0.000671,-0.000022,  49.656
   276.6,0.000201,0.000126,0.000722,-0.000035,  49.663
   276.8,0.000201,0.000119,0.000747,0.000000,  49.662
   277.0,0.000195,0.000124,0.000540,-0.000022,  49.664
   277.2,0.000192,0.000126,0.000200,-0.000035,  49.671
   277.4,0.000195,0.000119,-0.000280,0.000000,  49.664
   277.6,0.000188,0.000124,-0.000359,-0.000022,  49.669
   277.8,0.000192,0.000126,-0.000318,-0.000035,  49.670
   278.0,0.000195,0.000123,-0.000157,0.000000,  49.671
   278.2,0.000186,0.000127,-0.000046,-0.000022,  49.668
   278.4,0.000187,0.000129,0.000082,-0.000035,  49.672
   278.6,0.000187,0.000128,0.000245,0.000000,  49.671
   278.8,0.000187,0.000123,0.000325,-0.000022,  49.672
   279.0,0.000184,0.000125,0.000369,-0.000035,  49.669
   279.2,0.000188,0.000127,0.000380,0.000000,  49.672
   279.4,0.000182,0.000123,0.000449,-0.000022,  49.678
   279.6,0.000184,0.000123,0.000544,-0.000022,  49.678
   279.8,0.000191,0.000125,0.000648,0.000013,  49.675
   280.0,0.000197,0.000123,0.000678,-0.000009,  49.678
   280.2,0.000194,0.000123,0.000673,-0.000009,  49.682
   280.4,0.000195,0.000123,0.000628,0.000013,  49.684
   280.6,0.000195,0.000121,0.000632,-0.000009,  49.682
   280.8,0.000198,0.000119,0.000648,-0.000009,  49.687
   281.0,0.000189,0.000122,0.000648,0.000013,  49.687
   281.2,0.000183,0.000124,0.000648,0.000013,  49.695
   281.4,0.000185,0.000122,0.000634,0.000013,  49.694
   281.6,0.000185,0.000128,0.000604,0.000013,  49.694
   281.8,0.000179,0.000132,0.000663,0.000000,  49.696
   282.0,0.000173,0.000127,0.000788,0.000013,  49.700
   282.2,0.000179,0.000131,0.000938,0.000013,  49.693
   282.4,0.000179,0.000128,0.001133,0.000000,  49.693
   282.6,0.000173,0.000128,0.001153,-0.000022,  49.696
   282.8,0.000179,0.000125,0.001093,-0.000035,  49.698
   283.0,0.000179,0.000132,0.000988,0.000000,  49.694
   283.2,0.000175,0.000134,0.000983,-0.000035,  49.701
   283.4,0.000182,0.000133,0.000983,-0.000035,  49.699
   283.6,0.000184,0.000131,0.001004,-0.000013,  49.701
   283.8,0.000181,0.000136,0.000985,-0.000035,  49.701
   284.0,0.000181,0.000133,0.000935,-0.000035,  49.700
   284.2,0.000183,0.000137,0.000871,0.000000,  49.703
   284.4,0.000183,0.000141,0.000856,-0.000022,  49.701
   284.6,0.000183,0.000141,0.000856,-0.000035,  49.700
   284.8,0.000186,0.000139,0.000856,0.000000,  49.701
   285.0,0.000186,0.000137,0.000866,-0.000022,  49.704
   285.2,0.000188,0.000134,0.000877,-0.000022,  49.705
   285.4,0.000188,0.000134,0.000877,0.000013,  49.708
   285.6,0.000188,0.000132,0.000881,-0.000009,  49.723
   285.8,0.000188,0.000130,0.000891,-0.000009,  49.725
   286.0,0.000188,0.000132,0.000886,0.000013,  49.727
   286.2,0.000188,0.000131,0.000890,-0.000009,  49.729
   286.4,0.000188,0.000131,0.000886,-0.000009,  49.728
   286.6,0.000188,0.000131,0.000875,0.000026,  49.730
   286.8,0.000179,0.000132,0.000861,0.000004,  49.727
   287.0,0.000177,0.000130,0.000821,-0.000009,  49.727
   287.2,0.000179,0.000128,0.000771,0.000026,  49.731
   287.4,0.000170,0.000126,0.000760,0.000004,  49.731
   287.6,0.000177,0.000128,0.000760,0.000013,  49.731
   287.8,0.000177,0.000126,0.000765,0.000035,  49.731
   288.0,0.000179,0.000130,0.000759,0.000013,  49.731
   288.2,0.000183,0.000132,0.000759,0.000013,  49.727
   288.4,0.000183,0.000127,0.000754,0.000013,  49.727
   288.6,0.000183,0.000125,0.000754,-0.000009,  49.732
   288.8,0.000178,0.000123,0.000749,-0.000009,  49.731
   289.0,0.000175,0.000123,0.000738,0.000013,  49.729
   289.2,0.000173,0.000123,0.000753,-0.000009,  49.728
   289.4,0.000170,0.000122,0.000799,-0.000009,  49.728
   289.6,0.000171,0.000120,0.000844,0.000013,  49.730
   289.8,0.000172,0.000122,0.000874,-0.000009,  49.727
   290.0,0.000167,0.000124,0.000914,-0.000009,  49.726
   290.2,0.000174,0.000124,0.000954,0.000013,  49.729
   290.4,0.000168,0.000122,0.000929,0.000013,  49.730
   290.6,0.000171,0.000124,0.000868,0.000013,  49.730
   290.8,0.000164,0.000128,0.000794,0.000013,  49.734
   291.0,0.000158,0.000123,0.000765,0.000013,  49.729
   291.2,0.000161,0.000120,0.000725,0.000013,  49.736
   291.4,0.000164,0.000122,0.000689,0.000013,  49.736
   291.6,0.000167,0.000118,0.000689,0.000013,  49.737
   291.8,0.000161,0.000112,0.000715,-0.000009,  49.734
   292.0,0.000161,0.000112,0.000738,-0.000009,  49.736
   292.2,0.000161,0.000115,0.000788,0.000013,  49.738
   292.4,0.000152,0.000113,0.000768,-0.000009,  49.741
   292.6,0.000155,0.000108,0.000728,-0.000009,  49.739
   292.8,0.000156,0.000111,0.000684,0.000013,  49.740
   293.0,0.000161,0.000109,0.000663,-0.000009,  49.742
   293.2,0.000167,0.000106,0.000653,-0.000009,  49.741
   293.4,0.000166,0.000111,0.000642,0.000013,  49.747
   293.6,0.000176,0.000111,0.000666,-0.000009,  49.745
   293.8,0.000174,0.000113,0.000706,-0.000009,  49.748
   294.0,0.000170,0.000106,0.000767,0.000013,  49.749
   294.2,0.000166,0.000100,0.000776,-0.000009,  49.749
   294.4,0.000161,0.000102,0.000755,-0.000009,  49.754
   294.6,0.000157,0.000097,0.000715,-0.000022,  49.753
   294.8,0.000160,0.000097,0.000695,-0.000044,  49.757
   295.0,0.000157,0.000095,0.000684,-0.000009,  49.752
   295.2,0.000151,0.000094,0.000665,0.000013,  49.758
   295.4,0.000151,0.000095,0.000630,-0.000009,  49.755
   295.6,0.000144,0.000095,0.000594,-0.000009,  49.754
   295.8,0.000138,0.000094,0.000550,0.000013,  49.756
   296.0,0.000138,0.000095,0.000534,-0.000009,  49.754
   296.2,0.000138,0.000097,0.000534,-0.000009,  49.755
   296.4,0.000132,0.000097,0.000549,0.000013,  49.758
   296.6,0.000128,0.000092,0.000558,-0.000022,  49.761
   296.8,0.000134,0.000091,0.000583,-0.000022,  49.754
   297.0,0.000134,0.000088,0.000608,-0.000013,  49.760
   297.2,0.000128,0.000084,0.000603,-0.000048,  49.762
   297.4,0.000132,0.000079,0.000563,-0.000035,  49.760
   297.6,0.000132,0.000077,0.000493,-0.000013,  49.761
   297.8,0.000125,0.000082,0.000478,-0.000048,  49.761
   298.0,0.000129,0.000080,0.000468,-0.000035,  49.761
   298.2,0.000129,0.000076,0.000451,-0.000013,  49.762
   298.4,0.000132,0.000075,0.000456,-0.000048,  49.754
   298.6,0.000129,0.000075,0.000460,0.000000,  49.760
   298.8,0.000129,0.000069,0.000475,0.000022,  49.759
   299.0,0.000123,0.000071,0.000480,-0.000013,  49.760
   299.2,0.000126,0.000073,0.000484,0.000000,  49.756
   299.4,0.000121,0.000066,0.000480,-0.000013,  49.757
   299.6,0.000121,0.000069,0.000465,-0.000048,  49.760
   299.8,0.000112,0.000071,0.000440,-0.000035,  49.756
   300.0,0.000116,0.000066,0.000406,-0.000013,  49.754
   300.2,0.000116,0.000069,0.000385,-0.000013,  49.755
   300.4,0.000109,0.000071,0.000360,0.000000,  49.753
   300.6,0.000110,0.000069,0.000340,-0.000013,  49.753
   300.8,0.000110,0.000071,0.000324,-0.000013,  49.755
   301.0,0.000108,0.000073,0.000344,0.000000,  49.757
   301.2,0.000109,0.000069,0.000343,-0.000013,  49.750
   301.4,0.000113,0.000071,0.000363,-0.000013,  49.753
   301.6,0.000113,0.000069,0.000347,-0.000048,  49.756
   301.8,0.000113,0.000067,0.000332,-0.000035,  49.752
   302.0,0.000116,0.000065,0.000307,-0.000013,  49.753
   302.2,0.000116,0.000068,0.000318,-0.000048,  49.754
   302.4,0.000113,0.000066,0.000327,-0.000035,  49.754
   302.6,0.000113,0.000063,0.000336,-0.000013,  49.755
   302.8,0.000113,0.000065,0.000305,-0.000048,  49.754
   303.0,0.000113,0.000064,0.000244,-0.000048,  49.753
   303.2,0.000109,0.000063,0.000171,-0.000039,  49.757
   303.4,0.000109,0.000070,0.000160,-0.000074,  49.754
   303.6,0.000109,0.000070,0.000155,-0.000061,  49.755
   303.8,0.000105,0.000068,0.000169,-0.000026,  49.753
   304.0,0.000108,0.000069,0.000153,-0.000061,  49.755
   304.2,0.000112,0.000071,0.000124,-0.000061,  49.756
   304.4,0.000109,0.000063,0.000094,-0.000026,  49.755
   304.6,0.000109,0.000063,0.000088,-0.000061,  49.758
   304.8,0.000106,0.000061,0.000084,-0.000061,  49.756
   305.0,0.000104,0.000057,0.000094,-0.000026,  49.756
   305.2,0.000104,0.000055,-0.000333,-0.000061,  49.757
   305.4,0.000104,0.000048,-0.000989,-0.000048,  49.757
   305.6,0.000113,0.000047,-0.001864,-0.000013,  49.755
   305.8,0.000110,0.000048,-0.002258,-0.000048,  49.757
   306.0,0.000107,0.000046,-0.002511,-0.000035,  49.758
   306.2,0.000114,0.000045,-0.002650,-0.000013,  49.755
   306.4,0.000111,0.000051,-0.002472,-0.000048,  49.752
   306.6,0.000099,0.000049,-0.002079,-0.000035,  49.752
   306.8,0.000097,0.000049,-0.001445,-0.000013,  49.754
   307.0,0.000099,0.000049,-0.001146,-0.000048,  49.758
   307.2,0.000093,0.000046,-0.000911,-0.000035,  49.756
   307.4,0.000093,0.000045,-0.000726,-0.000013,  49.759
   307.6,0.000087,0.000043,-0.000557,-0.000048,  49.760
   307.8,0.000084,0.000041,-0.000412,-0.000035,  49.758
   308.0,0.000081,0.000043,-0.000312,-0.000013,  49.758
   308.2,0.000081,0.000036,-0.000222,-0.000048,  49.760
   308.4,0.000075,0.000036,-0.000178,-0.000035,  49.763
   308.6,0.000079,0.000038,-0.000147,-0.000013,  49.761
   308.8,0.000076,0.000038,-0.000132,-0.000048,  49.761
   309.0,0.000067,0.000038,-0.000132,-0.000035,  49.763
   309.2,0.000071,0.000037,-0.000161,-0.000013,  49.762
   309.4,0.000071,0.000041,-0.000172,-0.000013,  49.761
   309.6,0.000062,0.000038,-0.000182,0.000000,  49.760
   309.8,0.000068,0.000038,-0.000197,-0.000013,  49.760
   310.0,0.000071,0.000042,-0.000186,-0.000013,  49.762
   310.2,0.000065,0.000040,-0.000178,0.000000,  49.767
   310.4,0.000068,0.000044,-0.000152,-0.000013,  49.769
   310.6,0.000071,0.000041,-0.000133,-0.000013,  49.764
   310.8,0.000065,0.000044,-0.000144,-0.000048,  49.764
   311.0,0.000068,0.000047,-0.000174,-0.000035,  49.765
   311.2,0.000071,0.000046,-0.000204,-0.000013,  49.767
   311.4,0.000065,0.000051,-0.000339,-0.000048,  49.765
   311.6,0.000071,0.000051,-0.000529,-0.000035,  49.770
   311.8,0.000074,0.000046,-0.000779,-0.000013,  49.767
   312.0,0.000071,0.000046,-0.000783,-0.000048,  49.768
   312.2,0.000077,0.000050,-0.000708,-0.000035,  49.768
   312.4,0.000081,0.000044,-0.000538,-0.000013,  49.770
   312.6,0.000083,0.000050,-0.000483,-0.000048,  49.771
   312.8,0.000085,0.000050,-0.000444,-0.000048,  49.769
   313.0,0.000088,0.000051,-0.000403,-0.000026,  49.772
   313.2,0.000087,0.000057,-0.000333,-0.000061,  49.769
   313.4,0.000082,0.000052,-0.000285,-0.000048,  49.768
   313.6,0.000081,0.000052,-0.000210,-0.000013,  49.772
   313.8,0.000086,0.000061,-0.000151,-0.000048,  49.772
   314.0,0.000086,0.000061,-0.000090,-0.000048,  49.773
   314.2,0.000083,0.000055,-0.000030,-0.000026,  49.772
   314.4,0.000083,0.000051,-0.000001,-0.000061,  49.773
   314.6,0.000083,0.000053,0.000010,-0.000061,  49.772
   314.8,0.000079,0.000048,0.000010,-0.000039,  49.775
   315.0,0.000072,0.000044,-0.000005,-0.000074,  49.775
   315.2,0.000079,0.000046,-0.000039,-0.000061,  49.775
   315.4,0.000079,0.000046,-0.000104,-0.000026,  49.778
   315.6,0.000072,0.000046,-0.000119,-0.000061,  49.780
   315.8,0.000076,0.000045,-0.000144,-0.000061,  49.778
   316.0,0.000074,0.000040,-0.000158,-0.000026,  49.783
   316.2,0.000074,0.000044,-0.000124,-0.000061,  49.784
   316.4,0.000080,0.000044,-0.000070,-0.000061,  49.784
   316.6,0.000083,0.000042,0.000016,-0.000026,  49.785
   316.8,0.000080,0.000047,-0.000176,-0.000061,  49.786
   317.0,0.000077,0.000049,-0.000491,-0.000061,  49.788
   317.2,0.000077,0.000046,-0.000920,-0.000026,  49.791
   317.4,0.000077,0.000046,-0.000950,-0.000061,  49.790
   317.6,0.000071,0.000048,-0.000830,-0.000061,  49.789
   317.8,0.000077,0.000048,-0.000580,-0.000026,  49.793
   318.0,0.000071,0.000051,-0.000495,-0.000061,  49.790
   318.2,0.000071,0.000055,-0.000424,-0.000048,  49.791
   318.4,0.000077,0.000054,-0.000373,-0.000013,  49.790
   318.6,0.000080,0.000061,-0.000513,-0.000035,  49.786
   318.8,0.000077,0.000063,-0.000768,-0.000035,  49.789
   319.0,0.000077,0.000059,-0.001138,0.000000,  49.791
   319.2,0.000080,0.000054,-0.001124,0.000000,  49.789
   319.4,0.000074,0.000056,-0.000974,0.000000,  49.787
   319.6,0.000076,0.000057,-0.000683,0.000000,  49.786
   319.8,0.000076,0.000061,-0.000583,-0.000026,  49.786
   320.0,0.000070,0.000061,-0.000494,-0.000013,  49.781
   320.2,0.000076,0.000061,-0.000444,-0.000013,  49.784
   320.4,0.000076,0.000068,-0.000414,-0.000013,  49.787
   320.6,0.000070,0.000066,-0.000349,-0.000035,  49.782
   320.8,0.000076,0.000070,-0.000295,-0.000035,  49.779
   321.0,0.000079,0.000069,-0.000224,0.000000,  49.779
   321.2,0.000075,0.000071,-0.000170,-0.000035,  49.778
   321.4,0.000081,0.000067,-0.000124,-0.000035,  49.780
   321.6,0.000088,0.000071,-0.000089,-0.000013,  49.778
   321.8,0.000092,0.000069,-0.000083,-0.000048,  49.779
   322.0,0.000103,0.000061,-0.000108,-0.000035,  49.783
   322.2,0.000105,0.000065,-0.000147,-0.000013,  49.776
   322.4,0.000108,0.000067,-0.000176,-0.000048,  49.779
   322.6,0.000107,0.000069,-0.000206,-0.000035,  49.779
   322.8,0.000103,0.000062,-0.000245,-0.000013,  49.781
   323.0,0.000103,0.000063,-0.000236,-0.000035,  49.783
   323.2,0.000098,0.000060,-0.000181,-0.000035,  49.783
   323.4,0.000092,0.000063,-0.000122,0.000000,  49.783
   323.6,0.000094,0.000061,-0.000107,-0.000022,  49.781
   323.8,0.000094,0.000057,-0.000091,-0.000035,  49.785
   324.0,0.000094,0.000062,-0.000110,0.000000,  49.781
   324.2,0.000097,0.000066,-0.000110,-0.000022,  49.784
   324.4,0.000094,0.000064,-0.000115,-0.000035,  49.784
   324.6,0.000094,0.000062,-0.000129,0.000000,  49.788
   324.8,0.000097,0.000061,-0.000094,-0.000022,  49.789
   325.0,0.000094,0.000056,-0.000039,-0.000035,  49.789
   325.2,0.000094,0.000062,0.000020,0.000000,  49.785
   325.4,0.000097,0.000061,0.000030,-0.000035,  49.784
   325.6,0.000094,0.000059,0.000030,-0.000035,  49.791
   325.8,0.000094,0.000057,0.000005,-0.000013,  49.789
   326.0,0.000099,0.000061,0.000014,-0.000048,  49.789
   326.2,0.000090,0.000058,0.000043,-0.000035,  49.792
   326.4,0.000090,0.000058,0.000089,-0.000013,  49.794
   326.6,0.000084,0.000053,0.000093,-0.000048,  49.792
   326.8,0.000081,0.000051,0.000083,-0.000035,  49.792
   327.0,0.000088,0.000044,0.000059,-0.000013,  49.794
   327.2,0.000088,0.000049,0.000059,-0.000035,  49.793
   327.4,0.000090,0.000049,0.000043,-0.000035,  49.793
   327.6,0.000088,0.000044,0.000059,0.000000,  49.796
   327.8,0.000085,0.000047,-0.000166,0.000000,  49.798
   328.0,0.000085,0.000049,-0.000537,0.000013,  49.798
   328.2,0.000083,0.000044,-0.001011,0.000013,  49.797
   328.4,0.000080,0.000048,-0.001106,0.000000,  49.793
   328.6,0.000080,0.000048,-0.001056,0.000013,  49.799
   328.8,0.000080,0.000043,-0.000887,0.000013,  49.798
   329.0,0.000083,0.000048,-0.000567,-0.000035,  49.802
   329.2,0.000080,0.000048,-0.000497,-0.000057,  49.798
   329.4,0.000075,0.000049,-0.000457,-0.000035,  49.799
   329.6,0.000077,0.000043,-0.000432,-0.000035,  49.801
   329.8,0.000077,0.000044,-0.000363,-0.000057,  49.798
   330.0,0.000075,0.000046,-0.000279,-0.000035,  49.798
   330.2,0.000077,0.000042,-0.000179,-0.000035,  49.798
   330.4,0.000077,0.000034,-0.000154,-0.000070,  49.800
   330.6,0.000075,0.000032,-0.000185,-0.000048,  49.802
   330.8,0.000075,0.000032,-0.000239,-0.000026,  49.798
   331.0,0.000075,0.000041,-0.000235,-0.000061,  49.804
   331.2,0.000069,0.000044,-0.000215,-0.000061,  49.801
   331.4,0.000069,0.000040,-0.000180,-0.000026,  49.802
   331.6,0.000069,0.000036,-0.000186,-0.000061,  49.801
   331.8,0.000067,0.000039,-0.000201,-0.000061,  49.806
   332.0,0.000067,0.000039,-0.000210,-0.000026,  49.800
   332.2,0.000067,0.000039,-0.000360,-0.000061,  49.802
   332.4,0.000067,0.000031,-0.000605,-0.000048,  49.803
   332.6,0.000064,0.000037,-0.000914,-0.000013,  49.798
   332.8,0.000061,0.000039,-0.000920,-0.000048,  49.806
   333.0,0.000059,0.000035,-0.000795,-0.000035,  49.802
   333.2,0.000056,0.000038,-0.000549,-0.000013,  49.803
   333.4,0.000050,0.000039,-0.000455,-0.000048,  49.801
   333.6,0.000052,0.000038,-0.000366,-0.000013,  49.803
   333.8,0.000052,0.000045,-0.000286,0.000009,  49.798
   334.0,0.000046,0.000045,-0.000251,-0.000026,  49.799
   334.2,0.000052,0.000043,-0.000265,0.000009,  49.798
   334.4,0.000052,0.000046,-0.000326,0.000009,  49.800
   334.6,0.000052,0.000047,-0.000311,-0.000026,  49.797
   334.8,0.000052,0.000049,-0.000286,-0.000026,  49.794
   335.0,0.000059,0.000047,-0.000251,-0.000026,  49.790
   335.2,0.000055,0.000043,-0.000246,-0.000061,  49.794
   335.4,0.000055,0.000045,-0.000226,-0.000061,  49.789
   335.6,0.000064,0.000047,-0.000226,-0.000026,  49.790
   335.8,0.000067,0.000045,-0.000192,-0.000061,  49.787
   336.0,0.000067,0.000040,-0.000131,-0.000048,  49.787
   336.2,0.000061,0.000040,-0.000072,-0.000048,  49.784
   336.4,0.000068,0.000043,-0.000068,-0.000083,  49.783
   336.6,0.000068,0.000041,-0.000097,-0.000035,  49.779
   336.8,0.000068,0.000040,-0.000152,-0.000048,  49.778
   337.0,0.000072,0.000045,-0.000187,-0.000048,  49.777
   337.2,0.000072,0.000045,-0.000227,-0.000035,  49.776
   337.4,0.000065,0.000042,-0.000267,-0.000083,  49.771
   337.6,0.000063,0.000049,-0.000292,-0.000048,  49.775
   337.8,0.000063,0.000048,-0.000296,-0.000035,  49.772
   338.0,0.000065,0.000047,-0.000323,-0.000048,  49.766
   338.2,0.000068,0.000051,-0.000317,-0.000048,  49.762
   338.4,0.000068,0.000048,-0.000298,-0.000083,  49.764
   338.6,0.000068,0.000046,-0.000278,-0.000035,  49.765
   338.8,0.000070,0.000050,-0.000233,-0.000048,  49.756
   339.0,0.000070,0.000046,-0.000198,-0.000083,  49.761
   339.2,0.000074,0.000046,-0.000178,-0.000035,  49.753
   339.4,0.000068,0.000046,-0.000148,-0.000048,  49.757
   339.6,0.000068,0.000049,-0.000177,-0.000083,  49.757
   339.8,0.000068,0.000046,-0.000242,-0.000035,  49.755
   340.0,0.000061,0.000048,-0.000346,-0.000048,  49.754
   340.2,0.000064,0.000052,-0.000361,-0.000070,  49.751
   340.4,0.000067,0.000054,-0.000361,-0.000035,  49.739
   340.6,0.000060,0.000054,-0.000346,-0.000035,  49.743
   340.8,0.000057,0.000050,-0.000286,-0.000057,  49.743
   341.0,0.000063,0.000048,-0.000227,-0.000035,  49.738
   341.2,0.000067,0.000048,-0.000148,-0.000035,  49.743
   341.4,0.000061,0.000048,-0.000087,-0.000070,  49.740
   341.6,0.000060,0.000046,-0.000037,-0.000035,  49.739
   341.8,0.000060,0.000044,-0.000012,-0.000048,  49.737
   342.0,0.000060,0.000042,-0.000027,-0.000083,  49.740
   342.2,0.000056,0.000042,-0.000061,-0.000048,  49.735
   342.4,0.000052,0.000039,-0.000151,-0.000039,  49.730
   342.6,0.000050,0.000041,-0.000146,-0.000074,  49.730
   342.8,0.000054,0.000036,-0.000117,-0.000048,  49.733
   343.0,0.000056,0.000036,-0.000072,-0.000048,  49.730
   343.2,0.000056,0.000042,-0.000087,-0.000083,  49.730
   343.4,0.000056,0.000046,-0.000126,-0.000035,  49.729
   343.6,0.000065,0.000042,-0.000205,-0.000048,  49.726
   343.8,0.000065,0.000040,-0.000211,-0.000083,  49.723
   344.0,0.000063,0.000042,-0.000190,-0.000035,  49.725
   344.2,0.000065,0.000040,-0.000171,-0.000048,  49.720
   344.4,0.000068,0.000039,-0.000177,-0.000070,  49.725
   344.6,0.000068,0.000036,-0.000177,-0.000035,  49.723
   344.8,0.000068,0.000034,-0.000192,-0.000035,  49.724
   345.0,0.000070,0.000040,-0.000167,-0.000070,  49.723
   345.2,0.000070,0.000044,-0.000123,-0.000035,  49.726
   345.4,0.000070,0.000042,-0.000058,-0.000013,  49.720
   345.6,0.000064,0.000042,-0.000072,-0.000048,  49.722
   345.8,0.000067,0.000039,-0.000137,-0.000035,  49.724
   346.0,0.000064,0.000039,-0.000252,-0.000013,  49.723
   346.2,0.000064,0.000037,-0.000453,-0.000048,  49.719
   346.4,0.000067,0.000038,-0.000708,-0.000035,  49.718
   346.6,0.000070,0.000039,-0.001043,-0.000013,  49.718
   346.8,0.000070,0.000034,-0.001078,-0.000013,  49.717
   347.0,0.000070,0.000034,-0.001023,0.000000,  49.716
   347.2,0.000061,0.000034,-0.000833,-0.000013,  49.715
   347.4,0.000055,0.000033,-0.000778,-0.000013,  49.716
   347.6,0.000055,0.000031,-0.000724,0.000000,  49.714
   347.8,0.000061,0.000026,-0.000674,-0.000013,  49.710
   348.0,0.000059,0.000031,-0.000644,-0.000013,  49.710
   348.2,0.000056,0.000032,-0.000575,-0.000048,  49.708
   348.4,0.000054,0.000031,-0.000490,-0.000035,  49.701
   348.6,0.000054,0.000031,-0.000400,-0.000013,  49.700
   348.8,0.000045,0.000028,-0.000386,-0.000048,  49.698
   349.0,0.000047,0.000028,-0.000405,-0.000035,  49.703
   349.2,0.000050,0.000030,-0.000459,-0.000013,  49.696
   349.4,0.000047,0.000030,-0.000459,-0.000048,  49.695
   349.6,0.000054,0.000027,-0.000455,-0.000048,  49.697
   349.8,0.000056,0.000029,-0.000434,-0.000026,  49.693
   350.0,0.000051,0.000036,-0.000399,-0.000061,  49.694
   350.2,0.000048,0.000040,-0.000370,-0.000061,  49.689
   350.4,0.000051,0.000042,-0.000320,-0.000026,  49.690
   350.6,0.000051,0.000046,-0.000289,-0.000061,  49.688
   350.8,0.000051,0.000048,-0.000289,-0.000061,  49.685
   351.0,0.000056,0.000048,-0.000309,-0.000026,  49.684
   351.2,0.000061,0.000046,-0.000295,-0.000061,  49.686
   351.4,0.000064,0.000047,-0.000269,-0.000048,  49.692
   351.6,0.000067,0.000048,-0.000249,-0.000013,  49.688
   351.8,0.000069,0.000045,-0.000234,-0.000048,  49.689
   352.0,0.000064,0.000045,-0.000240,-0.000035,  49.687
   352.2,0.000064,0.000049,-0.000239,-0.000013,  49.682
   352.4,0.000067,0.000046,-0.000684,-0.000048,  49.669
   352.6,0.000064,0.000046,-0.001374,-0.000035,  49.666
   352.8,0.000064,0.000046,-0.002276,-0.000013,  49.668
   353.0,0.000067,0.000046,-0.002286,-0.000048,  49.672
   353.2,0.000064,0.000045,-0.001961,-0.000035,  49.678
   353.4,0.000064,0.000038,-0.001318,-0.000013,  49.672
   353.6,0.000064,0.000040,-0.001089,-0.000048,  49.678
   353.8,0.000055,0.000042,-0.000894,-0.000035,  49.675
   354.0,0.000061,0.000042,-0.000755,-0.000013,  49.678
   354.2,0.000055,0.000048,-0.000640,-0.000048,  49.681
   354.4,0.000058,0.000050,-0.000565,-0.000035,  49.675
   354.6,0.000061,0.000050,-0.000520,-0.000013,  49.678
   354.8,0.000061,0.000052,-0.000478,-0.000048,  49.678
   355.0,0.000061,0.000054,-0.000483,-0.000035,  49.681
   355.2,0.000061,0.000052,-0.000517,-0.000013,  49.679
   355.4,0.000061,0.000052,-0.000507,-0.000013,  49.680
   355.6,0.000067,0.000052,-0.000501,0.000000,  49.681
   355.8,0.000069,0.000051,-0.000511,0.000000,  49.680
   356.0,0.000069,0.000046,-0.000496,0.000000,  49.679
   356.2,0.000072,0.000046,-0.000480,0.000013,  49.678
   356.4,0.000069,0.000044,-0.000470,0.000013,  49.679
   356.6,0.000069,0.000045,-0.000815,0.000000,  49.679
   356.8,0.000069,0.000040,-0.001336,-0.000022,  49.672
   357.0,0.000067,0.000037,-0.002055,-0.000035,  49.677
   357.2,0.000067,0.000037,-0.002937,0.000000,  49.678
   357.4,0.000060,0.000035,-0.002823,-0.000022,  49.676
   357.6,0.000060,0.000033,-0.002420,-0.000035,  49.674
   357.8,0.000058,0.000035,-0.001733,0.000000,  49.678
   358.0,0.000049,0.000037,-0.001469,-0.000035,  49.675
   358.2,0.000052,0.000035,-0.001289,-0.000035,  49.677
   358.4,0.000050,0.000038,-0.001173,-0.000013,  49.672
   358.6,0.000041,0.000036,-0.001009,-0.000048,  49.675
   358.8,0.000047,0.000036,-0.000849,-0.000035,  49.673
   359.0,0.000050,0.000031,-0.000714,-0.000013,  49.673
   359.2,0.000038,0.000034,-0.000824,-0.000048,  49.669
   359.4,0.000042,0.000032,-0.001059,-0.000035,  49.672
   359.6,0.000042,0.000030,-0.001428,-0.000013,  49.672
   359.8,0.000033,0.000033,-0.001408,-0.000048,  49.673
   360.0,0.000034,0.000031,-0.001268,-0.000035,  49.673
   360.2,0.000034,0.000027,-0.001004,-0.000013,  49.671
   360.4,0.000037,0.000029,-0.000874,-0.000048,  49.673
   360.6,0.000043,0.000029,-0.000759,-0.000048,  49.671
   360.8,0.000043,0.000027,-0.000669,-0.000026,  49.671
   361.0,0.000043,0.000029,-0.001045,-0.000061,  49.671
   361.2,0.000040,0.000029,-0.001665,-0.000061,  49.670
   361.4,0.000040,0.000027,-0.002527,-0.000026,  49.670
   361.6,0.000043,0.000029,-0.002512,-0.000061,  49.674
   361.8,0.000040,0.000029,-0.002173,-0.000061,  49.674
   362.0,0.000044,0.000029,-0.001545,-0.000026,  49.672
   362.2,0.000044,0.000032,-0.001321,-0.000061,  49.676
   362.4,0.000041,0.000030,-0.001151,-0.000061,  49.677
   362.6,0.000039,0.000028,-0.001041,-0.000026,  49.675
   362.8,0.000039,0.000026,-0.000897,-0.000061,  49.675
   363.0,0.000039,0.000024,-0.000753,-0.000061,  49.674
   363.2,0.000036,0.000024,-0.000607,-0.000026,  49.676
   363.4,0.000039,0.000026,-0.000547,-0.000061,  49.675
   363.6,0.000041,0.000028,-0.000538,-0.000061,  49.675
   363.8,0.000041,0.000027,-0.000547,-0.000026,  49.677
   364.0,0.000044,0.000025,-0.000537,-0.000061,  49.681
   364.2,0.000044,0.000027,-0.000552,-0.000061,  49.676
   364.4,0.000044,0.000033,-0.000581,-0.000039,  49.677
   364.6,0.000047,0.000034,-0.000596,-0.000039,  49.680
   364.8,0.000049,0.000038,-0.000611,-0.000039,  49.678
   365.0,0.000047,0.000040,-0.000650,-0.000026,  49.676
   365.2,0.000047,0.000038,-0.000621,-0.000026,  49.679
   365.4,0.000049,0.000043,-0.000566,-0.000013,  49.678
   365.6,0.000049,0.000045,-0.000503,-0.000013,  49.678
   365.8,0.000046,0.000042,-0.000409,-0.000013,  49.677
   366.0,0.000048,0.000033,-0.000388,-0.000048,  49.678
   366.2,0.000054,0.000040,-0.000388,-0.000035,  49.680
   366.4,0.000050,0.000039,-0.000407,-0.000013,  49.675
   366.6,0.000047,0.000039,-0.000412,-0.000048,  49.679
   366.8,0.000054,0.000036,-0.000447,-0.000035,  49.678
   367.0,0.000056,0.000031,-0.000487,-0.000013,  49.676
   367.2,0.000051,0.000032,-0.000502,-0.000048,  49.680
   367.4,0.000048,0.000030,-0.000516,-0.000048,  49.676
   367.6,0.000048,0.000030,-0.000531,-0.000026,  49.677
   367.8,0.000046,0.000032,-0.000496,-0.000061,  49.677
   368.0,0.000043,0.000029,-0.000456,-0.000048,  49.672
   368.2,0.000047,0.000027,-0.000391,-0.000013,  49.681
   368.4,0.000044,0.000035,-0.000331,-0.000048,  49.680
   368.6,0.000048,0.000040,-0.000291,-0.000035,  49.679
   368.8,0.000048,0.000036,-0.000252,-0.000013,  49.681
   369.0,0.000050,0.000036,-0.000247,-0.000048,  49.680
   369.2,0.000047,0.000041,-0.000278,-0.000013,  49.681
   369.4,0.000043,0.000041,-0.000322,0.000009,  49.684
   369.6,0.000043,0.000041,-0.000347,-0.000026,  49.681
   369.8,0.000038,0.000036,-0.000397,-0.000026,  49.685
   370.0,0.000031,0.000038,-0.000441,-0.000026,  49.683
   370.2,0.000034,0.000043,-0.000932,-0.000061,  49.687
   370.4,0.000040,0.000040,-0.001640,-0.000061,  49.688
   370.6,0.000040,0.000040,-0.002582,-0.000026,  49.689
   370.8,0.000046,0.000045,-0.002578,-0.000061,  49.686
   371.0,0.000046,0.000044,-0.002224,-0.000061,  49.689
   371.2,0.000046,0.000048,-0.001501,-0.000026,  49.691
   371.4,0.000048,0.000052,-0.001242,-0.000061,  49.694
   371.6,0.000039,0.000051,-0.001022,-0.000061,  49.691
   371.8,0.000046,0.000055,-0.000872,-0.000039,  49.690
   372.0,0.000039,0.000055,-0.000982,-0.000074,  49.690
   372.2,0.000042,0.000051,-0.001246,-0.000061,  49.691
   372.4,0.000048,0.000051,-0.001676,-0.000026,  49.689
   372.6,0.000051,0.000051,-0.001636,-0.000061,  49.695
   372.8,0.000054,0.000051,-0.001456,-0.000048,  49.708
   373.0,0.000056,0.000053,-0.001116,-0.000013,  49.708
   373.2,0.000059,0.000051,-0.000991,-0.000048,  49.713
   373.4,0.000059,0.000051,-0.000885,-0.000048,  49.712
   373.6,0.000056,0.000051,-0.000821,-0.000026,  49.712
   373.8,0.000059,0.000050,-0.000775,-0.000026,  49.713
   374.0,0.000059,0.000050,-0.000755,-0.000026,  49.715
   374.2,0.000056,0.000050,-0.000759,-0.000026,  49.717
   374.4,0.000065,0.000048,-0.000834,-0.000039,  49.712
   374.6,0.000065,0.000050,-0.000954,-0.000026,  49.718
   374.8,0.000063,0.000047,-0.001125,-0.000026,  49.712
   375.0,0.000072,0.000049,-0.001345,-0.000026,  49.713
   375.2,0.000072,0.000051,-0.001305,-0.000061,  49.711
   375.4,0.000063,0.000048,-0.001185,-0.000061,  49.714
   375.6,0.000065,0.000048,-0.000994,-0.000026,  49.717
   375.8,0.000063,0.000053,-0.000899,-0.000061,  49.717
   376.0,0.000057,0.000046,-0.000828,-0.000048,  49.711
   376.2,0.000060,0.000048,-0.000783,-0.000013,  49.718
   376.4,0.000060,0.000050,-0.000714,-0.000035,  49.714
   376.6,0.000064,0.000050,-0.000628,-0.000035,  49.720
   376.8,0.000060,0.000048,-0.000553,-0.000035,  49.718
   377.0,0.000060,0.000046,-0.000495,-0.000057,  49.716
   377.2,0.000066,0.000044,-0.000424,-0.000035,  49.720
   377.4,0.000063,0.000042,-0.000364,-0.000035,  49.716
   377.6,0.000060,0.000040,-0.000359,-0.000070,  49.717
   377.8,0.000060,0.000043,-0.000378,-0.000035,  49.721
   378.0,0.000063,0.000044,-0.000427,-0.000048,  49.719
   378.2,0.000060,0.000049,-0.000432,-0.000083,  49.722
   378.4,0.000060,0.000051,-0.000436,-0.000035,  49.720
   378.6,0.000063,0.000053,-0.000451,-0.000013,  49.721
   378.8,0.000063,0.000054,-0.000796,-0.000048,  49.721
   379.0,0.000063,0.000058,-0.001316,-0.000035,  49.719
   379.2,0.000068,0.000060,-0.002020,-0.000013,  49.718
   379.4,0.000070,0.000062,-0.001991,-0.000048,  49.719
   379.6,0.000070,0.000064,-0.001698,-0.000035,  49.718
   379.8,0.000073,0.000062,-0.001119,-0.000013,  49.719
   380.0,0.000073,0.000060,-0.000894,-0.000048,  49.715
   380.2,0.000073,0.000057,-0.000730,-0.000035,  49.715
   380.4,0.000070,0.000057,-0.000605,-0.000013,  49.714
   380.6,0.000073,0.000055,-0.000505,-0.000035,  49.712
   380.8,0.000073,0.000055,-0.000459,-0.000035,  49.723
   381.0,0.000076,0.000054,-0.000459,0.000000,  49.714
   381.2,0.000078,0.000056,-0.000409,-0.000022,  49.716
   381.4,0.000081,0.000057,-0.000364,-0.000035,  49.715
   381.6,0.000081,0.000063,-0.000339,0.000000,  49.714
   381.8,0.000081,0.000060,-0.000343,-0.000022,  49.712
   382.0,0.000081,0.000060,-0.000357,-0.000035,  49.709
   382.2,0.000076,0.000060,-0.000421,0.000000,  49.713
   382.4,0.000076,0.000057,-0.000416,0.000000,  49.713
   382.6,0.000076,0.000054,-0.000416,0.000013,  49.713
   382.8,0.000079,0.000059,-0.000401,0.000013,  49.714
   383.0,0.000073,0.000059,-0.000376,0.000000,  49.714
   383.2,0.000076,0.000052,-0.000341,0.000013,  49.711
   383.4,0.000082,0.000054,-0.000307,0.000013,  49.713
   383.6,0.000076,0.000053,-0.000273,0.000000,  49.707
   383.8,0.000076,0.000049,-0.000233,-0.000022,  49.710
   384.0,0.000077,0.000044,-0.000187,-0.000035,  49.706
   384.2,0.000064,0.000047,-0.000148,0.000000,  49.708
   384.4,0.000067,0.000044,-0.000133,-0.000022,  49.703
   384.6,0.000067,0.000040,-0.000143,-0.000035,  49.707
   384.8,0.000060,0.000042,-0.000177,0.000000,  49.706
   385.0,0.000058,0.000042,-0.000207,-0.000022,  49.705
   385.2,0.000061,0.000037,-0.000252,-0.000035,  49.705
   385.4,0.000065,0.000039,-0.000311,0.000000,  49.703
   385.6,0.000065,0.000044,-0.000301,-0.000022,  49.704
   385.8,0.000063,0.000044,-0.000276,-0.000035,  49.701
   386.0,0.000069,0.000042,-0.000215,0.000000,  49.701
   386.2,0.000069,0.000047,-0.000371,-0.000022,  49.701
   386.4,0.000063,0.000049,-0.000621,-0.000035,  49.697
   386.6,0.000065,0.000049,-0.000966,0.000000,  49.701
   386.8,0.000065,0.000053,-0.000997,-0.000022,  49.699
   387.0,0.000063,0.000061,-0.000906,-0.000035,  49.700
   387.2,0.000065,0.000057,-0.000715,0.000000,  49.699
   387.4,0.000065,0.000063,-0.000611,-0.000022,  49.700
   387.6,0.000063,0.000067,-0.000507,-0.000035,  49.700
   387.8,0.000065,0.000066,-0.000392,0.000000,  49.696
   388.0,0.000065,0.000068,-0.000833,-0.000022,  49.680
   388.2,0.000072,0.000070,-0.001553,-0.000035,  49.682
   388.4,0.000068,0.000074,-0.002549,0.000000,  49.679
   388.6,0.000073,0.000074,-0.002539,-0.000022,  49.681
   388.8,0.000082,0.000073,-0.002170,-0.000035,  49.681
   389.0,0.000082,0.000075,-0.001447,0.000000,  49.677
   389.2,0.000087,0.000073,-0.001202,-0.000022,  49.682
   389.4,0.000078,0.000073,-0.001006,0.000000,  49.678
   389.6,0.000085,0.000072,-0.000900,0.000035,  49.675
   389.8,0.000082,0.000078,-0.000746,0.000013,  49.670
   390.0,0.000093,0.000080,-0.000601,0.000048,  49.677
   390.2,0.000102,0.000078,-0.000482,0.000048,  49.679
   390.4,0.000098,0.000078,-0.000392,0.000026,  49.677
   390.6,0.000100,0.000076,-0.000326,0.000061,  49.680
   390.8,0.000101,0.000072,-0.000285,0.000048,  49.676
   391.0,0.000100,0.000073,-0.000260,0.000026,  49.682
   391.2,0.000112,0.000075,-0.000264,0.000061,  49.672
   391.4,0.000114,0.000067,-0.000273,0.000048,  49.678
   391.6,0.000111,0.000071,-0.000247,0.000048,  49.678
   391.8,0.000113,0.000073,-0.000226,0.000013,  49.678
   392.0,0.000110,0.000071,-0.000206,0.000013,  49.677
   392.2,0.000106,0.000073,-0.000191,0.000013,  49.677
   392.4,0.000112,0.000071,-0.000160,0.000013,  49.672
   392.6,0.000107,0.000072,-0.000157,0.000013,  49.673
   392.8,0.000101,0.000075,-0.000132,0.000013,  49.672
   393.0,0.000110,0.000076,-0.000142,-0.000009,  49.669
   393.2,0.000107,0.000074,-0.000161,-0.000009,  49.674
   393.4,0.000101,0.000075,-0.000201,0.000013,  49.672
   393.6,0.000103,0.000073,-0.000161,-0.000009,  49.673
   393.8,0.000101,0.000073,-0.000102,-0.000009,  49.668
   394.0,0.000093,0.000062,-0.000008,0.000013,  49.669
   394.2,0.000097,0.000062,-0.000018,-0.000009,  49.669
   394.4,0.000107,0.000059,-0.000042,-0.000022,  49.667
   394.6,0.000106,0.000061,-0.000122,0.000000,  49.664
   394.8,0.000101,0.000063,-0.000157,-0.000022,  49.661
   395.0,0.000104,0.000059,-0.000176,-0.000035,  49.662
   395.2,0.000100,0.000058,-0.000201,0.000000,  49.659
   395.4,0.000101,0.000060,-0.000176,-0.000022,  49.652
   395.6,0.000090,0.000060,-0.000132,-0.000035,  49.658
   395.8,0.000080,0.000057,-0.000067,0.000000,  49.651
   396.0,0.000083,0.000052,-0.000088,-0.000022,  49.654
   396.2,0.000077,0.000051,-0.000122,-0.000035,  49.654
   396.4,0.000071,0.000051,-0.000211,0.000000,  49.655
   396.6,0.000074,0.000053,-0.000342,-0.000022,  49.651
   396.8,0.000071,0.000050,-0.000513,-0.000035,  49.650
   397.0,0.000067,0.000046,-0.000723,0.000000,  49.649
   397.2,0.000067,0.000057,-0.001147,-0.000035,  49.656
   397.4,0.000074,0.000059,-0.001711,0.000000,  49.656
   397.6,0.000070,0.000056,-0.002393,0.000022,  49.654
   397.8,0.000070,0.000058,-0.002359,-0.000013,  49.654
   398.0,0.000073,0.000058,-0.002026,0.000035,  49.654
   398.2,0.000069,0.000061,-0.001399,0.000022,  49.656
   398.4,0.000075,0.000059,-0.001200,-0.000013,  49.657
   398.6,0.000084,0.000059,-0.001069,0.000035,  49.659
   398.8,0.000087,0.000059,-0.000993,0.000022,  49.657
   399.0,0.000078,0.000059,-0.000848,0.000022,  49.658
   399.2,0.000081,0.000066,-0.000719,0.000022,  49.650
   399.4,0.000078,0.000066,-0.000579,0.000044,  49.651
   399.6,0.000074,0.000064,-0.000510,0.000009,  49.655
   399.8,0.000081,0.000070,-0.000479,0.000022,  49.653
   400.0,0.000083,0.000073,-0.000488,0.000022,  49.655
   400.2,0.000079,0.000071,-0.000463,-0.000013,  49.655
   400.4,0.000088,0.000068,-0.000448,0.000035,  49.658
   400.6,0.000086,0.000067,-0.000448,0.000022,  49.654
   400.8,0.000079,0.000067,-0.000623,0.000000,  49.653
   401.0,0.000086,0.000064,-0.000883,0.000035,  49.653
   401.2,0.000086,0.000065,-0.001263,0.000035,  49.654
   401.4,0.000079,0.000067,-0.001263,0.000035,  49.654
   401.6,0.000086,0.000061,-0.001128,0.000013,  49.657
   401.8,0.000083,0.000061,-0.000863,0.000048,  49.664
   402.0,0.000077,0.000057,-0.000748,0.000035,  49.661
   402.2,0.000086,0.000051,-0.000633,0.000013,  49.658
   402.4,0.000083,0.000051,-0.000519,0.000048,  49.664
   402.6,0.000077,0.000049,-0.000424,0.000035,  49.664
   402.8,0.000079,0.000047,-0.000370,0.000013,  49.662
   403.0,0.000077,0.000047,-0.000324,0.000035,  49.664
   403.2,0.000068,0.000049,-0.000314,0.000035,  49.666
   403.4,0.000068,0.000051,-0.000289,0.000000,  49.663
   403.6,0.000069,0.000050,-0.000285,0.000000,  49.669
   403.8,0.000060,0.000052,-0.000279,-0.000013,  49.669
   404.0,0.000057,0.000050,-0.000283,-0.000048,  49.669
   404.2,0.000058,0.000047,-0.000314,-0.000013,  49.674
   404.4,0.000052,0.000047,-0.000339,0.000009,  49.676
   404.6,0.000052,0.000040,-0.000304,-0.000026,  49.678
   404.8,0.000056,0.000042,-0.000260,0.000009,  49.677
   405.0,0.000049,0.000042,-0.000186,-0.000004,  49.676
   405.2,0.000056,0.000049,-0.000207,-0.000039,  49.675
   405.4,0.000059,0.000050,-0.000257,0.000009,  49.671
   405.6,0.000053,0.000044,-0.000336,-0.000004,  49.675
   405.8,0.000062,0.000042,-0.000492,-0.000039,  49.674
   406.0,0.000059,0.000042,-0.000712,0.000009,  49.673
   406.2,0.000053,0.000045,-0.000982,0.000009,  49.677
   406.4,0.000062,0.000042,-0.001007,-0.000026,  49.681
   406.6,0.000059,0.000042,-0.000957,0.000009,  49.683
   406.8,0.000053,0.000042,-0.000812,0.000009,  49.684
   407.0,0.000062,0.000043,-0.000743,-0.000026,  49.685
   407.2,0.000059,0.000038,-0.000680,0.000009,  49.688
   407.4,0.000053,0.000038,-0.000590,0.000009,  49.685
   407.6,0.000062,0.000041,-0.000531,-0.000026,  49.686
   407.8,0.000059,0.000036,-0.000471,0.000009,  49.692
   408.0,0.000057,0.000036,-0.000425,0.000009,  49.692
   408.2,0.000053,0.000036,-0.000391,-0.000026,  49.691
   408.4,0.000063,0.000034,-0.000356,0.000009,  49.691
   408.6,0.000061,0.000032,-0.000346,0.000009,  49.691
   408.8,0.000054,0.000030,-0.000366,-0.000026,  49.696
   409.0,0.000054,0.000030,-0.000396,0.000009,  49.695
   409.2,0.000061,0.000030,-0.000450,0.000009,  49.697
   409.4,0.000054,0.000037,-0.000455,-0.000026,  49.695
   409.6,0.000049,0.000032,-0.000465,0.000009,  49.699
   409.8,0.000050,0.000031,-0.000465,0.000009,  49.698
   410.0,0.000046,0.000033,-0.000436,0.000009,  49.698
   410.2,0.000046,0.000031,-0.000391,-0.000026,  49.697
   410.4,0.000053,0.000026,-0.000347,0.000009,  49.701
   410.6,0.000049,0.000033,-0.000382,-0.000004,  49.707
   410.8,0.000052,0.000038,-0.000441,-0.000026,  49.719
   411.0,0.000058,0.000036,-0.000561,-0.000026,  49.721
   411.2,0.000054,0.000036,-0.000580,-0.000026,  49.721
   411.4,0.000054,0.000040,-0.000580,-0.000061,  49.717
   411.6,0.000054,0.000042,-0.000555,-0.000061,  49.727
   411.8,0.000048,0.000040,-0.000509,-0.000026,  49.724
   412.0,0.000054,0.000040,-0.000518,-0.000061,  49.726
   412.2,0.000054,0.000041,-0.000558,-0.000061,  49.724
   412.4,0.000048,0.000043,-0.000612,-0.000039,  49.720
   412.6,0.000052,0.000040,-0.000587,-0.000074,  49.723
   412.8,0.000053,0.000039,-0.000533,-0.000061,  49.728
   413.0,0.000049,0.000037,-0.000480,-0.000039,  49.725
   413.2,0.000049,0.000040,-0.000490,-0.000074,  49.727
   413.4,0.000055,0.000038,-0.000520,-0.000061,  49.727
   413.6,0.000052,0.000040,-0.000589,-0.000039,  49.724
   413.8,0.000049,0.000042,-0.000584,-0.000074,  49.723
   414.0,0.000055,0.000040,-0.000570,-0.000061,  49.724
   414.2,0.000054,0.000039,-0.000530,-0.000026,  49.726
   414.4,0.000061,0.000036,-0.000545,-0.000061,  49.721
   414.6,0.000070,0.000039,-0.000605,-0.000061,  49.724
   414.8,0.000066,0.000040,-0.000684,-0.000026,  49.724
   415.0,0.000066,0.000044,-0.000644,-0.000061,  49.725
   415.2,0.000063,0.000046,-0.000580,-0.000061,  49.721
   415.4,0.000057,0.000047,-0.000481,-0.000026,  49.720
   415.6,0.000057,0.000042,-0.000832,-0.000061,  49.723
   415.8,0.000063,0.000037,-0.001381,-0.000061,  49.724
   416.0,0.000057,0.000046,-0.002154,-0.000026,  49.727
   416.2,0.000057,0.000047,-0.002150,-0.000061,  49.727
   416.4,0.000063,0.000042,-0.001866,-0.000061,  49.723
   416.6,0.000057,0.000045,-0.001308,-0.000026,  49.722
   416.8,0.000057,0.000045,-0.001162,-0.000061,  49.720
   417.0,0.000063,0.000044,-0.001107,-0.000026,  49.722
   417.2,0.000063,0.000046,-0.001116,0.000009,  49.722
   417.4,0.000057,0.000045,-0.001031,-0.000026,  49.716
   417.6,0.000063,0.000045,-0.000925,0.000009,  49.721
   417.8,0.000063,0.000047,-0.000821,0.000009,  49.717
   418.0,0.000059,0.000049,-0.000766,-0.000026,  49.721
   418.2,0.000057,0.000046,-0.000721,0.000009,  49.723
   418.4,0.000063,0.000046,-0.000696,0.000009,  49.724
   418.6,0.000057,0.000046,-0.000666,-0.000026,  49.719
   418.8,0.000057,0.000044,-0.000646,0.000022,  49.722
   419.0,0.000063,0.000044,-0.000650,0.000022,  49.725
   419.2,0.000057,0.000044,-0.000835,0.000022,  49.719
   419.4,0.000057,0.000042,-0.001120,-0.000013,  49.715
   419.6,0.000063,0.000038,-0.001519,0.000022,  49.716
   419.8,0.000057,0.000041,-0.001559,0.000009,  49.718
   420.0,0.000059,0.000041,-0.001495,-0.000013,  49.718
   420.2,0.000066,0.000041,-0.001280,0.000022,  49.716
   420.4,0.000059,0.000041,-0.000966,0.000009,  49.719
   420.6,0.000062,0.000040,-0.000876,-0.000026,  49.717
   420.8,0.000066,0.000043,-0.000816,0.000009,  49.718
   421.0,0.000059,0.000048,-0.000771,-0.000004,  49.715
   421.2,0.000059,0.000050,-0.000710,-0.000039,  49.714
   421.4,0.000057,0.000052,-0.000656,0.000009,  49.720
   421.6,0.000050,0.000055,-0.000600,-0.000004,  49.719
   421.8,0.000059,0.000053,-0.000540,-0.000039,  49.717
   422.0,0.000059,0.000053,-0.000490,0.000009,  49.718
   422.2,0.000053,0.000057,-0.000445,0.000009,  49.721
   422.4,0.000065,0.000052,-0.000434,-0.000026,  49.718
   422.6,0.000065,0.000051,-0.000453,-0.000013,  49.717
   422.8,0.000061,0.000051,-0.000502,-0.000013,  49.719
   423.0,0.000067,0.000046,-0.000477,-0.000048,  49.718
   423.2,0.000067,0.000046,-0.000442,-0.000013,  49.716
   423.4,0.000064,0.000048,-0.000408,0.000009,  49.720
   423.6,0.000067,0.000048,-0.000507,-0.000026,  49.721
   423.8,0.000074,0.000048,-0.000664,0.000009,  49.721
   424.0,0.000070,0.000045,-0.000901,-0.000004,  49.723
   424.2,0.000070,0.000047,-0.001040,-0.000039,  49.722
   424.4,0.000076,0.000049,-0.001166,0.000009,  49.721
   424.6,0.000073,0.000051,-0.001289,0.000009,  49.722
   424.8,0.000075,0.000053,-0.001210,-0.000026,  49.719
   425.0,0.000082,0.000055,-0.001015,0.000009,  49.721
   425.2,0.000078,0.000057,-0.000745,0.000009,  49.721
   425.4,0.000078,0.000059,-0.000640,-0.000026,  49.718
   425.6,0.000082,0.000058,-0.000582,0.000022,  49.723
   425.8,0.000082,0.000058,-0.000557,0.000022,  49.721
   426.0,0.000078,0.000063,-0.000527,0.000022,  49.723
   426.2,0.000084,0.000060,-0.000502,0.000022,  49.720
   426.4,0.000082,0.000060,-0.000486,0.000044,  49.718
   426.6,0.000083,0.000065,-0.000467,0.000044,  49.717
   426.8,0.000081,0.000064,-0.000437,0.000009,  49.720
   427.0,0.000087,0.000066,-0.000402,0.000031,  49.717
   427.2,0.000090,0.000072,-0.000392,-0.000004,  49.718
   427.4,0.000080,0.000067,-0.000392,0.000009,  49.719
   427.6,0.000081,0.000067,-0.000416,0.000009,  49.718
   427.8,0.000086,0.000071,-0.000426,-0.000026,  49.714
   428.0,0.000085,0.000071,-0.000424,0.000009,  49.711
   428.2,0.000094,0.000065,-0.000439,0.000009,  49.709
   428.4,0.000091,0.000072,-0.000549,0.000009,  49.712
   428.6,0.000091,0.000070,-0.000724,-0.000013,  49.712
   428.8,0.000091,0.000074,-0.000959,-0.000013,  49.712
   429.0,0.000087,0.000073,-0.000989,-0.000013,  49.710
   429.2,0.000090,0.000074,-0.000939,0.000000,  49.708
   429.4,0.000092,0.000068,-0.000823,-0.000013,  49.705
   429.6,0.000088,0.000073,-0.000648,-0.000026,  49.700
   429.8,0.000088,0.000074,-0.000573,-0.000061,  49.705
   430.0,0.000092,0.000072,-0.000507,-0.000048,  49.705
   430.2,0.000086,0.000070,-0.000457,-0.000013,  49.702
   430.4,0.000088,0.000070,-0.000417,-0.000048,  49.702
   430.6,0.000095,0.000067,-0.000388,-0.000035,  49.704
   430.8,0.000088,0.000062,-0.000363,-0.000013,  49.699
   431.0,0.000085,0.000064,-0.000333,-0.000048,  49.696
   431.2,0.000082,0.000064,-0.000308,-0.000035,  49.679
   431.4,0.000076,0.000064,-0.000294,-0.000013,  49.677
   431.6,0.000078,0.000064,-0.000304,-0.000048,  49.676
   431.8,0.000082,0.000059,-0.000323,-0.000035,  49.672
   432.0,0.000076,0.000060,-0.000367,-0.000013,  49.669
   432.2,0.000082,0.000059,-0.000342,-0.000048,  49.669
   432.4,0.000086,0.000057,-0.000288,-0.000035,  49.666
   432.6,0.000079,0.000052,-0.000229,-0.000013,  49.667
   432.8,0.000086,0.000050,-0.000195,-0.000048,  49.661
   433.0,0.000083,0.000052,-0.000171,-0.000035,  49.665
   433.2,0.000074,0.000048,-0.000146,-0.000013,  49.661
   433.4,0.000074,0.000046,-0.000127,-0.000048,  49.659
   433.6,0.000069,0.000046,-0.000118,-0.000035,  49.660
   433.8,0.000063,0.000042,-0.000108,-0.000013,  49.660
   434.0,0.000069,0.000045,-0.000108,-0.000048,  49.658
   434.2,0.000075,0.000047,-0.000118,-0.000035,  49.663
   434.4,0.000069,0.000038,-0.000148,-0.000013,  49.660
   434.6,0.000073,0.000040,-0.000183,-0.000048,  49.663
   434.8,0.000071,0.000042,-0.000228,-0.000035,  49.659
   435.0,0.000065,0.000041,-0.000278,-0.000013,  49.655
   435.2,0.000065,0.000042,-0.000278,-0.000048,  49.659
   435.4,0.000068,0.000045,-0.000274,-0.000035,  49.661
   435.6,0.000068,0.000045,-0.000239,-0.000013,  49.659
   435.8,0.000065,0.000042,-0.000253,-0.000048,  49.652
   436.0,0.000068,0.000036,-0.000320,-0.000048,  49.658
   436.2,0.000071,0.000040,-0.000383,-0.000039,  49.660
   436.4,0.000065,0.000038,-0.000373,-0.000074,  49.657
   436.6,0.000067,0.000033,-0.000353,-0.000061,  49.654
   436.8,0.000076,0.000039,-0.000303,-0.000039,  49.657
   437.0,0.000073,0.000043,-0.000314,-0.000074,  49.655
   437.2,0.000075,0.000045,-0.000343,-0.000061,  49.657
   437.4,0.000075,0.000045,-0.000398,-0.000026,  49.658
   437.6,0.000072,0.000050,-0.000398,-0.000026,  49.658
   437.8,0.000072,0.000052,-0.000377,-0.000026,  49.655
   438.0,0.000069,0.000054,-0.000341,-0.000013,  49.657
   438.2,0.000065,0.000061,-0.000260,-0.000026,  49.655
   438.4,0.000072,0.000063,-0.000165,-0.000013,  49.657
   438.6,0.000075,0.000062,-0.000030,-0.000013,  49.656
   438.8,0.000072,0.000066,0.000119,-0.000026,  49.651
   439.0,0.000078,0.000068,0.000109,-0.000061,  49.654
   439.2,0.000075,0.000072,0.000050,-0.000061,  49.653
   439.4,0.000072,0.000070,-0.000049,-0.000026,  49.649
   439.6,0.000078,0.000070,-0.000094,-0.000061,  49.654
   439.8,0.000084,0.000065,-0.000154,-0.000048,  49.657
   440.0,0.000083,0.000065,-0.000198,-0.000013,  49.657
   440.2,0.000086,0.000067,-0.000178,-0.000048,  49.657
   440.4,0.000097,0.000065,-0.000138,-0.000035,  49.656
   440.6,0.000096,0.000060,-0.000073,-0.000013,  49.655
   440.8,0.000096,0.000058,-0.000033,-0.000035,  49.654
   441.0,0.000100,0.000052,0.000007,-0.000035,  49.657
   441.2,0.000096,0.000056,0.000026,0.000000,  49.654
   441.4,0.000096,0.000059,-0.000015,-0.000035,  49.658
   441.6,0.000103,0.000054,-0.000080,-0.000035,  49.657
   441.8,0.000099,0.000059,-0.000174,-0.000013,  49.656
   442.0,0.000096,0.000059,-0.000430,-0.000048,  49.654
   442.2,0.000094,0.000056,-0.000780,-0.000035,  49.652
   442.4,0.000090,0.000061,-0.001219,-0.000013,  49.656
   442.6,0.000096,0.000059,-0.001194,-0.000048,  49.649
   442.8,0.000094,0.000056,-0.001000,-0.000035,  49.658
   443.0,0.000087,0.000059,-0.000620,-0.000013,  49.652
   443.2,0.000094,0.000055,-0.000530,-0.000048,  49.652
   443.4,0.000088,0.000055,-0.000480,-0.000035,  49.651
   443.6,0.000082,0.000051,-0.000474,-0.000013,  49.646
   443.8,0.000085,0.000050,-0.000416,-0.000048,  49.646
   444.0,0.000082,0.000043,-0.000330,-0.000035,  49.647
   444.2,0.000082,0.000041,-0.000235,-0.000013,  49.648
   444.4,0.000076,0.000039,-0.000180,-0.000048,  49.649
   444.6,0.000073,0.000035,-0.000140,-0.000048,  49.649
   444.8,0.000077,0.000035,-0.000126,-0.000026,  49.647
   445.0,0.000070,0.000035,-0.000106,-0.000061,  49.646
   445.2,0.000065,0.000033,-0.000112,-0.000061,  49.648
   445.4,0.000063,0.000035,-0.000112,-0.000026,  49.644
   445.6,0.000063,0.000035,-0.000127,-0.000061,  49.646
   445.8,0.000060,0.000033,-0.000156,-0.000061,  49.648
   446.0,0.000057,0.000027,-0.000217,-0.000026,  49.646
   446.2,0.000057,0.000026,-0.000257,-0.000026,  49.646
   446.4,0.000057,0.000026,-0.000312,-0.000026,  49.646
   446.6,0.000058,0.000022,-0.000362,-0.000026,  49.650
   446.8,0.000052,0.000027,-0.000373,-0.000039,  49.646
   447.0,0.000052,0.000026,-0.000389,-0.000026,  49.647
   447.2,0.000056,0.000030,-0.000362,-0.000039,  49.654
   447.4,0.000049,0.000029,-0.000693,-0.000039,  49.652
   447.6,0.000049,0.000027,-0.001179,-0.000074,  49.656
   447.8,0.000056,0.000033,-0.001828,-0.000061,  49.656
   448.0,0.000049,0.000029,-0.002635,-0.000039,  49.657
   448.2,0.000049,0.000029,-0.002591,-0.000074,  49.653
   448.4,0.000056,0.000029,-0.002297,-0.000061,  49.657
   448.6,0.000052,0.000034,-0.001739,-0.000039,  49.655
   448.8,0.000061,0.000034,-0.001498,-0.000074,  49.658
   449.0,0.000070,0.000034,-0.001314,-0.000061,  49.656
   449.2,0.000067,0.000029,-0.001169,-0.000039,  49.654
   449.4,0.000076,0.000031,-0.001029,-0.000074,  49.652
   449.6,0.000082,0.000031,-0.000915,-0.000039,  49.649
   449.8,0.000084,0.000037,-0.000824,-0.000017,  49.651
   450.0,0.000074,0.000040,-0.000744,-0.000052,  49.657
   450.2,0.000076,0.000037,-0.000690,-0.000017,  49.654
   450.4,0.000075,0.000042,-0.000640,-0.000017,  49.654
   450.6,0.000071,0.000044,-0.000581,-0.000052,  49.654
   450.8,0.000074,0.000040,-0.000516,-0.000039,  49.654
   451.0,0.000070,0.000042,-0.000456,-0.000026,  49.656
   451.2,0.000073,0.000046,-0.000466,-0.000061,  49.652
   451.4,0.000078,0.000042,-0.000525,-0.000061,  49.655
   451.6,0.000072,0.000044,-0.000614,-0.000026,  49.655
   451.8,0.000078,0.000042,-0.000574,-0.000061,  49.651
   452.0,0.000078,0.000037,-0.000503,-0.000061,  49.648
   452.2,0.000072,0.000044,-0.000389,-0.000026,  49.652
   452.4,0.000078,0.000042,-0.000334,-0.000061,  49.650
   452.6,0.000078,0.000035,-0.000295,-0.000061,  49.648
   452.8,0.000072,0.000034,-0.000259,-0.000026,  49.652
   453.0,0.000078,0.000031,-0.000219,-0.000061,  49.657
   453.2,0.000078,0.000025,-0.000200,-0.000026,  49.652
   453.4,0.000075,0.000024,-0.000175,-0.000004,  49.648
   453.6,0.000072,0.000028,-0.000190,-0.000039,  49.653
   453.8,0.000073,0.000028,-0.000234,0.000009,  49.651
   454.0,0.000073,0.000026,-0.000303,-0.000004,  49.655
   454.2,0.000066,0.000024,-0.000324,-0.000039,  49.658
   454.4,0.000061,0.000026,-0.000318,0.000009,  49.657
   454.6,0.000058,0.000026,-0.000318,-0.000004,  49.656
   454.8,0.000052,0.000027,-0.000364,-0.000039,  49.657
   455.0,0.000049,0.000022,-0.000418,0.000009,  49.658
   455.2,0.000050,0.000021,-0.000498,-0.000004,  49.660
   455.4,0.000044,0.000025,-0.000539,-0.000004,  49.659
   455.6,0.000044,0.000023,-0.000558,-0.000039,  49.662
   455.8,0.000050,0.000027,-0.000562,-0.000039,  49.662
   456.0,0.000044,0.000029,-0.000537,-0.000039,  49.664
   456.2,0.000044,0.000026,-0.000514,-0.000026,  49.663
   456.4,0.000050,0.000029,-0.000443,-0.000039,  49.659
   456.6,0.000041,0.000027,-0.000374,-0.000039,  49.662
   456.8,0.000045,0.000023,-0.000759,-0.000074,  49.663
   457.0,0.000055,0.000027,-0.001324,-0.000061,  49.667
   457.2,0.000052,0.000027,-0.002078,-0.000026,  49.664
   457.4,0.000052,0.000027,-0.002138,-0.000061,  49.668
   457.6,0.000063,0.000029,-0.001948,-0.000061,  49.666
   457.8,0.000059,0.000031,-0.001503,-0.000039,  49.666
   458.0,0.000062,0.000031,-0.001353,-0.000074,  49.668
   458.2,0.000059,0.000031,-0.001229,-0.000061,  49.662
   458.4,0.000056,0.000029,-0.001119,-0.000026,  49.665
   458.6,0.000061,0.000027,-0.000994,-0.000061,  49.667
   458.8,0.000064,0.000025,-0.000900,-0.000061,  49.670
   459.0,0.000060,0.000027,-0.000805,-0.000026,  49.670
   459.2,0.000057,0.000031,-0.000725,-0.000061,  49.669
   459.4,0.000061,0.000028,-0.000665,-0.000061,  49.668
   459.6,0.000057,0.000026,-0.000625,-0.000026,  49.672
   459.8,0.000055,0.000031,-0.000591,-0.000061,  49.673
   460.0,0.000061,0.000028,-0.000566,-0.000061,  49.672
   460.2,0.000055,0.000028,-0.000536,-0.000026,  49.666
   460.4,0.000052,0.000035,-0.000486,-0.000061,  49.672
   460.6,0.000056,0.000030,-0.000452,-0.000026,  49.672
   460.8,0.000049,0.000028,-0.000402,-0.000004,  49.668
   461.0,0.000052,0.000029,-0.000352,-0.000039,  49.673
   461.2,0.000058,0.000029,-0.000306,0.000009,  49.670
   461.4,0.000052,0.000027,-0.000287,-0.000004,  49.676
   461.6,0.000055,0.000032,-0.000268,-0.000039,  49.674
   461.8,0.000058,0.000032,-0.000247,-0.000026,  49.670
   462.0,0.000052,0.000027,-0.000257,-0.000039,  49.675
   462.2,0.000055,0.000032,-0.000293,-0.000074,  49.674
   462.4,0.000058,0.000032,-0.000341,-0.000026,  49.674
   462.6,0.000062,0.000029,-0.000425,-0.000004,  49.677
   462.8,0.000057,0.000034,-0.000421,-0.000039,  49.677
   463.0,0.000064,0.000032,-0.000381,-0.000026,  49.675
   463.2,0.000066,0.000028,-0.000321,-0.000039,  49.679
   463.4,0.000060,0.000031,-0.000336,-0.000074,  49.679
   463.6,0.000056,0.000031,-0.000381,-0.000061,  49.680
   463.8,0.000055,0.000029,-0.000445,-0.000039,  49.678
   464.0,0.000052,0.000037,-0.000484,-0.000074,  49.676
   464.2,0.000052,0.000038,-0.000534,-0.000061,  49.675
   464.4,0.000061,0.000038,-0.000594,-0.000026,  49.677
   464.6,0.000057,0.000040,-0.000865,-0.000026,  49.673
   464.8,0.000057,0.000040,-0.001270,-0.000026,  49.673
   465.0,0.000057,0.000043,-0.001794,-0.000013,  49.675
   465.2,0.000053,0.000046,-0.001869,-0.000026,  49.676
   465.4,0.000058,0.000044,-0.001780,-0.000013,  49.676
   465.6,0.000058,0.000048,-0.001515,-0.000013,  49.677
   465.8,0.000055,0.000049,-0.001105,-0.000026,  49.674
   466.0,0.000060,0.000049,-0.000941,-0.000061,  49.678
   466.2,0.000069,0.000056,-0.000781,-0.000061,  49.674
   466.4,0.000068,0.000059,-0.000627,-0.000026,  49.672
   466.6,0.000068,0.000064,-0.000752,-0.000061,  49.674
   466.8,0.000074,0.000059,-0.001032,-0.000061,  49.673
   467.0,0.000070,0.000066,-0.001456,-0.000026,  49.675
   467.2,0.000073,0.000061,-0.001441,-0.000061,  49.671
   467.4,0.000079,0.000057,-0.001292,-0.000061,  49.671
   467.6,0.000074,0.000057,-0.000985,-0.000026,  49.670
   467.8,0.000082,0.000056,-0.000855,-0.000061,  49.671
   468.0,0.000090,0.000058,-0.000760,-0.000048,  49.672
   468.2,0.000084,0.000057,-0.000669,-0.000013,  49.672
   468.4,0.000086,0.000057,-0.000584,-0.000048,  49.670
   468.6,0.000083,0.000054,-0.000530,-0.000035,  49.667
   468.8,0.000079,0.000052,-0.000495,-0.000013,  49.671
   469.0,0.000079,0.000056,-0.000449,-0.000048,  49.671
   469.2,0.000073,0.000056,-0.000420,-0.000035,  49.671
   469.4,0.000072,0.000056,-0.000414,-0.000013,  49.672
   469.6,0.000078,0.000052,-0.000439,-0.000048,  49.673
   469.8,0.000081,0.000050,-0.000483,-0.000035,  49.669
   470.0,0.000077,0.000046,-0.000562,-0.000013,  49.675
   470.2,0.000079,0.000048,-0.000558,-0.000048,  49.671
   470.4,0.000077,0.000045,-0.000508,-0.000013,  49.669
   470.6,0.000070,0.000040,-0.000423,-0.000004,  49.667
   470.8,0.000073,0.000040,-0.000408,-0.000039,  49.668
   471.0,0.000077,0.000037,-0.000403,-0.000004,  49.666
   471.2,0.000074,0.000038,-0.000408,-0.000017,  49.669
   471.4,0.000074,0.000038,-0.000398,-0.000052,  49.664
   471.6,0.000063,0.000036,-0.000377,-0.000017,  49.667
   471.8,0.000066,0.000036,-0.000387,-0.000017,  49.663
   472.0,0.000060,0.000038,-0.000548,-0.000052,  49.662
   472.2,0.000055,0.000042,-0.000783,-0.000052,  49.661
   472.4,0.000058,0.000041,-0.001103,-0.000052,  49.657
   472.6,0.000052,0.000038,-0.001084,-0.000087,  49.656
   472.8,0.000052,0.000041,-0.000929,-0.000074,  49.655
   473.0,0.000056,0.000044,-0.000650,-0.000039,  49.653
   473.2,0.000049,0.000042,-0.000571,-0.000074,  49.654
   473.4,0.000052,0.000039,-0.000536,-0.000061,  49.651
   473.6,0.000058,0.000042,-0.000550,-0.000039,  49.652
   473.8,0.000055,0.000040,-0.000540,-0.000039,  49.648
   474.0,0.000057,0.000035,-0.000534,-0.000039,  49.651
   474.2,0.000057,0.000035,-0.000543,-0.000026,  49.649
   474.4,0.000060,0.000039,-0.000528,-0.000026,  49.650
   474.6,0.000060,0.000034,-0.000493,-0.000013,  49.646
   474.8,0.000060,0.000034,-0.000448,-0.000013,  49.647
   475.0,0.000063,0.000039,-0.000398,-0.000026,  49.645
   475.2,0.000060,0.000037,-0.000353,-0.000061,  49.642
   475.4,0.000066,0.000033,-0.000299,-0.000061,  49.637
   475.6,0.000063,0.000036,-0.000261,-0.000026,  49.643
   475.8,0.000063,0.000034,-0.000261,-0.000061,  49.636
   476.0,0.000069,0.000034,-0.000286,-0.000061,  49.639
   476.2,0.000065,0.000031,-0.000345,-0.000026,  49.642
   476.4,0.000063,0.000031,-0.000380,-0.000061,  49.639
   476.6,0.000064,0.000033,-0.000415,-0.000061,  49.638
   476.8,0.000061,0.000037,-0.000455,-0.000026,  49.636
   477.0,0.000063,0.000035,-0.000471,-0.000061,  49.637
   477.2,0.000069,0.000030,-0.000471,-0.000061,  49.637
   477.4,0.000065,0.000024,-0.000440,-0.000026,  49.638
   477.6,0.000062,0.000023,-0.000480,-0.000061,  49.635
   477.8,0.000063,0.000018,-0.000545,-0.000061,  49.635
   478.0,0.000059,0.000018,-0.000628,-0.000026,  49.638
   478.2,0.000062,0.000023,-0.000643,-0.000061,  49.634
   478.4,0.000059,0.000016,-0.000649,-0.000061,  49.638
   478.6,0.000053,0.000012,-0.000639,-0.000026,  49.637
   478.8,0.000062,0.000013,-0.000819,-0.000061,  49.634
   479.0,0.000059,0.000012,-0.001075,-0.000061,  49.635
   479.2,0.000053,0.000011,-0.001419,-0.000039,  49.633
   479.4,0.000053,0.000019,-0.001400,-0.000087,  49.634
   479.6,0.000050,0.000013,-0.001236,-0.000052,  49.632
   479.8,0.000041,0.000012,-0.000932,-0.000030,  49.636
   480.0,0.000041,0.000011,-0.001248,-0.000078,  49.638
   480.2,0.000045,0.000007,-0.001812,-0.000043,  49.637
   480.4,0.000036,0.000002,-0.002629,-0.000030,  49.636
   480.6,0.000034,0.000007,-0.002610,-0.000065,  49.641
   480.8,0.000035,0.000009,-0.002296,-0.000030,  49.641
   481.0,0.000028,0.000006,-0.001697,-0.000030,  49.640
   481.2,0.000028,0.000010,-0.001464,-0.000052,  49.639
   481.4,0.000032,0.000012,-0.001265,-0.000017,  49.642
   481.6,0.000036,0.000011,-0.001101,-0.000017,  49.641
   481.8,0.000039,0.000015,-0.000982,-0.000039,  49.644
   482.0,0.000041,0.000016,-0.000901,0.000009,  49.645
   482.2,0.000054,0.000016,-0.000850,-0.000004,  49.641
   482.4,0.000051,0.000016,-0.000781,-0.000039,  49.639
   482.6,0.000050,0.000013,-0.000700,-0.000004,  49.642
   482.8,0.000048,0.000021,-0.000635,-0.000017,  49.642
   483.0,0.000047,0.000029,-0.000560,-0.000052,  49.642
   483.2,0.000053,0.000024,-0.000516,-0.000017,  49.644
   483.4,0.000053,0.000026,-0.000476,-0.000017,  49.643
   483.6,0.000049,0.000029,-0.000491,-0.000017,  49.647
   483.8,0.000052,0.000024,-0.000556,-0.000052,  49.642
   484.0,0.000061,0.000024,-0.000648,-0.000004,  49.646
   484.2,0.000057,0.000025,-0.000663,-0.000004,  49.644
   484.4,0.000059,0.000023,-0.000659,-0.000026,  49.645
   484.6,0.000062,0.000021,-0.000618,-0.000004,  49.647
   484.8,0.000058,0.000026,-0.000973,-0.000004,  49.645
   485.0,0.000065,0.000023,-0.001508,-0.000039,  49.642
   485.2,0.000062,0.000021,-0.002221,0.000009,  49.648
   485.4,0.000056,0.000027,-0.003128,-0.000004,  49.645
   485.6,0.000062,0.000028,-0.003068,-0.000039,  49.639
   485.8,0.000059,0.000023,-0.002744,0.000009,  49.644
   486.0,0.000053,0.000026,-0.002131,-0.000004,  49.643
   486.2,0.000062,0.000021,-0.001822,-0.000039,  49.646
   486.4,0.000062,0.000019,-0.001542,0.000009,  49.645
   486.6,0.000056,0.000020,-0.001289,-0.000004,  49.642
   486.8,0.000062,0.000021,-0.001124,-0.000039,  49.638
   487.0,0.000059,0.000023,-0.001014,0.000009,  49.650
   487.2,0.000053,0.000021,-0.000979,-0.000004,  49.648
   487.4,0.000056,0.000020,-0.000939,-0.000039,  49.648
   487.6,0.000053,0.000013,-0.000908,0.000009,  49.649
   487.8,0.000044,0.000014,-0.000917,-0.000004,  49.650
   488.0,0.000044,0.000012,-0.000888,-0.000039,  49.651
   488.2,0.000048,0.000010,-0.000853,-0.000004,  49.650
   488.4,0.000039,0.000012,-0.000818,-0.000017,  49.651
   488.6,0.000036,0.000018,-0.000748,-0.000052,  49.651
   488.8,0.000036,0.000013,-0.000648,-0.000017,  49.653
   489.0,0.000039,0.000016,-0.000549,-0.000017,  49.650
   489.2,0.000034,0.000017,-0.000729,-0.000052,  49.647
   489.4,0.000031,0.000015,-0.001049,-0.000017,  49.650
   489.6,0.000034,0.000019,-0.001504,-0.000017,  49.646
   489.8,0.000031,0.000025,-0.001535,-0.000052,  49.646
   490.0,0.000031,0.000023,-0.001419,-0.000017,  49.653
   490.2,0.000031,0.000023,-0.001174,-0.000017,  49.652
   490.4,0.000036,0.000025,-0.001070,-0.000052,  49.655
   490.6,0.000039,0.000021,-0.000970,-0.000017,  49.654
   490.8,0.000041,0.000022,-0.000870,-0.000017,  49.655
   491.0,0.000044,0.000023,-0.000785,-0.000052,  49.653
   491.2,0.000047,0.000027,-0.000725,-0.000017,  49.659
   491.4,0.000053,0.000027,-0.000685,-0.000017,  49.660
   491.6,0.000049,0.000032,-0.000650,-0.000052,  49.661
   491.8,0.000052,0.000030,-0.000640,-0.000004,  49.660
   492.0,0.000053,0.000032,-0.000654,-0.000004,  49.657
   492.2,0.000047,0.000034,-0.000644,-0.000004,  49.662
   492.4,0.000052,0.000034,-0.000644,-0.000039,  49.658
   492.6,0.000058,0.000029,-0.000644,-0.000004,  49.660
   492.8,0.000052,0.000030,-0.000623,-0.000004,  49.658
   493.0,0.000055,0.000027,-0.000604,-0.000026,  49.663
   493.2,0.000058,0.000025,-0.000569,-0.000004,  49.660
   493.4,0.000055,0.000027,-0.000534,-0.000004,  49.660
   493.6,0.000055,0.000026,-0.000519,-0.000039,  49.654
   493.8,0.000061,0.000030,-0.000519,-0.000004,  49.654
   494.0,0.000055,0.000037,-0.000513,-0.000017,  49.653
   494.2,0.000061,0.000037,-0.000549,-0.000052,  49.647
   494.4,0.000065,0.000037,-0.000593,-0.000017,  49.651
   494.6,0.000061,0.000039,-0.000662,-0.000017,  49.644
   494.8,0.000064,0.000040,-0.000682,-0.000052,  49.647
   495.0,0.000064,0.000046,-0.000672,-0.000039,  49.645
   495.2,0.000060,0.000044,-0.000662,-0.000039,  49.647
   495.4,0.000066,0.000044,-0.000623,-0.000074,  49.646
   495.6,0.000070,0.000044,-0.000549,-0.000061,  49.647
   495.8,0.000066,0.000045,-0.000459,-0.000039,  49.649
   496.0,0.000064,0.000046,-0.000459,-0.000074,  49.647
   496.2,0.000061,0.000044,-0.000488,-0.000061,  49.651
   496.4,0.000057,0.000048,-0.000552,-0.000039,  49.651
   496.6,0.000055,0.000047,-0.000527,-0.000074,  49.653
   496.8,0.000061,0.000042,-0.000466,-0.000061,  49.649
   497.0,0.000057,0.000049,-0.000377,-0.000039,  49.651
   497.2,0.000061,0.000047,-0.000331,-0.000074,  49.648
   497.4,0.000067,0.000040,-0.000296,-0.000061,  49.653
   497.6,0.000064,0.000045,-0.000269,-0.000039,  49.656
   497.8,0.000070,0.000043,-0.000630,-0.000074,  49.650
   498.0,0.000070,0.000039,-0.001190,-0.000061,  49.650
   498.2,0.000066,0.000045,-0.001954,-0.000026,  49.651
   498.4,0.000073,0.000047,-0.001989,-0.000061,  49.654
   498.6,0.000070,0.000046,-0.001760,-0.000048,  49.649
   498.8,0.000070,0.000050,-0.001261,-0.000013,  49.650
   499.0,0.000064,0.000050,-0.001066,-0.000048,  49.654
   499.2,0.000066,0.000050,-0.000901,-0.000035,  49.649
   499.4,0.000064,0.000046,-0.000771,-0.000013,  49.651
   499.6,0.000060,0.000050,-0.000650,-0.000048,  49.647
   499.8,0.000066,0.000050,-0.000566,-0.000035,  49.648
   500.0,0.000073,0.000045,-0.000506,-0.000013,  49.648
   500.2,0.000069,0.000050,-0.000491,-0.000048,  49.646
   500.4,0.000075,0.000048,-0.000506,-0.000035,  49.645
   500.6,0.000078,0.000050,-0.000571,-0.000013,  49.643
   500.8,0.000072,0.000055,-0.000541,-0.000048,  49.642
   501.0,0.000078,0.000055,-0.000477,-0.000035,  49.644
   501.2,0.000075,0.000053,-0.000377,-0.000013,  49.644
   501.4,0.000072,0.000055,-0.000377,-0.000013,  49.647
   501.6,0.000078,0.000057,-0.000396,0.000000,  49.648
   501.8,0.000075,0.000052,-0.000440,-0.000013,  49.645
   502.0,0.000072,0.000057,-0.000459,-0.000013,  49.644
   502.2,0.000078,0.000055,-0.000490,0.000000,  49.643
   502.4,0.000075,0.000048,-0.000505,-0.000013,  49.642
   502.6,0.000074,0.000047,-0.000530,-0.000026,  49.639
   502.8,0.000081,0.000045,-0.000570,-0.000061,  49.644
   503.0,0.000081,0.000042,-0.000609,-0.000061,  49.641
   503.2,0.000077,0.000042,-0.000658,-0.000026,  49.645
   503.4,0.000086,0.000049,-0.000637,-0.000061,  49.647
   503.6,0.000083,0.000042,-0.000612,-0.000061,  49.649
   503.8,0.000074,0.000042,-0.000562,-0.000026,  49.645
   504.0,0.000072,0.000042,-0.000548,-0.000061,  49.646
   504.2,0.000066,0.000041,-0.000537,-0.000061,  49.647
   504.4,0.000060,0.000039,-0.000548,-0.000039,  49.645
   504.6,0.000057,0.000040,-0.000593,-0.000074,  49.650
   504.8,0.000064,0.000038,-0.000658,-0.000061,  49.645
   505.0,0.000060,0.000038,-0.000742,-0.000039,  49.643
   505.2,0.000060,0.000040,-0.000723,-0.000074,  49.643
   505.4,0.000064,0.000036,-0.000668,-0.000039,  49.639
   505.6,0.000060,0.000033,-0.000574,-0.000017,  49.642
   505.8,0.000060,0.000031,-0.000835,-0.000052,  49.642
   506.0,0.000064,0.000031,-0.001235,-0.000017,  49.640
   506.2,0.000060,0.000033,-0.001793,-0.000017,  49.639
   506.4,0.000060,0.000036,-0.002167,-0.000052,  49.636
   506.6,0.000057,0.000031,-0.002527,-0.000017,  49.638
   506.8,0.000060,0.000033,-0.002849,-0.000017,  49.632
   507.0,0.000060,0.000035,-0.002735,-0.000052,  49.633
   507.2,0.000057,0.000029,-0.002388,-0.000039,  49.637
   507.4,0.000057,0.000031,-0.001810,-0.000026,  49.638
   507.6,0.000057,0.000034,-0.001571,-0.000061,  49.638
   507.8,0.000060,0.000027,-0.001366,-0.000061,  49.636
   508.0,0.000057,0.000035,-0.001207,-0.000026,  49.636
   508.2,0.000057,0.000039,-0.001038,-0.000061,  49.632
   508.4,0.000057,0.000039,-0.000878,-0.000061,  49.635
   508.6,0.000055,0.000038,-0.000743,-0.000039,  49.632
   508.8,0.000057,0.000037,-0.000693,-0.000074,  49.632
   509.0,0.000057,0.000037,-0.000687,-0.000061,  49.631
   509.2,0.000057,0.000039,-0.000746,-0.000039,  49.632
   509.4,0.000060,0.000043,-0.000706,-0.000039,  49.631
   509.6,0.000060,0.000043,-0.000641,-0.000039,  49.628
   509.8,0.000057,0.000047,-0.000541,-0.000039,  49.626
   510.0,0.000060,0.000054,-0.000536,-0.000039,  49.628
   510.2,0.000060,0.000051,-0.000590,-0.000026,  49.629
   510.4,0.000066,0.000060,-0.000674,-0.000039,  49.627
   510.6,0.000063,0.000060,-0.000683,-0.000039,  49.628
   510.8,0.000063,0.000055,-0.000673,-0.000074,  49.627
   511.0,0.000072,0.000060,-0.000642,-0.000061,  49.626
   511.2,0.000068,0.000058,-0.000612,-0.000026,  49.621
   511.4,0.000070,0.000058,-0.000737,-0.000061,  49.626
   511.6,0.000077,0.000052,-0.000922,-0.000061,  49.623
   511.8,0.000073,0.000059,-0.001172,-0.000026,  49.623
   512.0,0.000076,0.000058,-0.001182,-0.000061,  49.625
   512.2,0.000077,0.000061,-0.001097,-0.000061,  49.624
   512.4,0.000072,0.000060,-0.000922,-0.000026,  49.623
   512.6,0.000079,0.000056,-0.000808,-0.000061,  49.625
   512.8,0.000091,0.000054,-0.000693,-0.000061,  49.623
   513.0,0.000091,0.000058,-0.000574,-0.000026,  49.624
   513.2,0.000081,0.000066,-0.000545,-0.000061,  49.631
   513.4,0.000086,0.000065,-0.000549,-0.000061,  49.629
   513.6,0.000083,0.000065,-0.000598,-0.000026,  49.628
   513.8,0.000083,0.000065,-0.000553,-0.000061,  49.625
   514.0,0.000085,0.000056,-0.000474,-0.000061,  49.629
   514.2,0.000084,0.000056,-0.000364,-0.000026,  49.629
   514.4,0.000084,0.000056,-0.000368,-0.000061,  49.635
   514.6,0.000087,0.000056,-0.000427,-0.000061,  49.631
   514.8,0.000083,0.000052,-0.000530,-0.000026,  49.635
   515.0,0.000083,0.000057,-0.000545,-0.000061,  49.636
   515.2,0.000087,0.000061,-0.000535,-0.000061,  49.634
   515.4,0.000081,0.000063,-0.000520,-0.000039,  49.636
   515.6,0.000077,0.000062,-0.000491,-0.000074,  49.640
   515.8,0.000077,0.000062,-0.000441,-0.000061,  49.640
   516.0,0.000077,0.000065,-0.000386,-0.000026,  49.639
   516.2,0.000073,0.000068,-0.000376,-0.000061,  49.643
   516.4,0.000073,0.000066,-0.000401,-0.000026,  49.641
   516.6,0.000082,0.000065,-0.000435,0.000009,  49.640
   516.8,0.000078,0.000071,-0.000410,-0.000026,  49.642
   517.0,0.000078,0.000066,-0.000380,-0.000013,  49.643
   517.2,0.000085,0.000064,-0.000320,-0.000013,  49.643
   517.4,0.000084,0.000063,-0.000301,-0.000048,  49.643
   517.6,0.000092,0.000056,-0.000276,-0.000035,  49.644
   517.8,0.000099,0.000059,-0.000255,-0.000013,  49.641
   518.0,0.000102,0.000060,-0.000280,-0.000048,  49.646
   518.2,0.000099,0.000055,-0.000324,-0.000035,  49.641
   518.4,0.000092,0.000060,-0.000389,-0.000013,  49.643
   518.6,0.000083,0.000056,-0.000370,-0.000013,  49.644
   518.8,0.000083,0.000051,-0.000316,-0.000013,  49.644
   519.0,0.000080,0.000058,-0.000248,0.000009,  49.647
   519.2,0.000074,0.000058,-0.000253,-0.000004,  49.643
   519.4,0.000068,0.000050,-0.000278,-0.000026,  49.645
   519.6,0.000072,0.000048,-0.000318,-0.000004,  49.647
   519.8,0.000078,0.000043,-0.000392,-0.000004,  49.654
   520.0,0.000076,0.000039,-0.000427,-0.000039,  49.653
   520.2,0.000070,0.000030,-0.000446,0.000009,  49.653
   520.4,0.000077,0.000030,-0.000477,-0.000004,  49.649
   520.6,0.000077,0.000027,-0.000468,-0.000039,  49.648
   520.8,0.000068,0.000027,-0.000424,0.000009,  49.648
   521.0,0.000064,0.000025,-0.000365,-0.000004,  49.650
   521.2,0.000063,0.000025,-0.000377,-0.000039,  49.648
   521.4,0.000070,0.000023,-0.000402,0.000009,  49.643
   521.6,0.000059,0.000019,-0.000441,-0.000004,  49.648
   521.8,0.000055,0.000017,-0.000422,-0.000039,  49.646
   522.0,0.000054,0.000017,-0.000393,0.000009,  49.645
   522.2,0.000047,0.000015,-0.000343,-0.000004,  49.646
   522.4,0.000044,0.000016,-0.000359,-0.000039,  49.642
   522.6,0.000035,0.000011,-0.000394,0.000009,  49.644
   522.8,0.000031,0.000013,-0.000449,-0.000004,  49.644
   523.0,0.000031,0.000011,-0.000679,-0.000039,  49.643
   523.2,0.000031,0.000011,-0.000989,-0.000004,  49.641
   523.4,0.000031,0.000013,-0.001419,-0.000017,  49.642
   523.6,0.000028,0.000016,-0.001469,-0.000065,  49.645
   523.8,0.000023,0.000008,-0.001390,-0.000030,  49.644
   524.0,0.000023,0.000012,-0.001170,-0.000030,  49.644
   524.2,0.000028,0.000014,-0.001080,-0.000078,  49.649
   524.4,0.000028,0.000012,-0.000991,-0.000043,  49.653
   524.6,0.000028,0.000011,-0.000901,-0.000030,  49.653
   524.8,0.000031,0.000019,-0.000811,-0.000065,  49.656
   525.0,0.000028,0.000021,-0.000732,-0.000030,  49.652
   525.2,0.000028,0.000017,-0.000673,-0.000030,  49.656
   525.4,0.000031,0.000016,-0.000629,-0.000065,  49.651
   525.6,0.000028,0.000014,-0.000599,-0.000030,  49.654
   525.8,0.000031,0.000021,-0.000579,-0.000030,  49.654
   526.0,0.000034,0.000019,-0.000599,-0.000065,  49.650
   526.2,0.000034,0.000019,-0.000644,-0.000030,  49.652
   526.4,0.000031,0.000018,-0.000707,-0.000030,  49.650
   526.6,0.000034,0.000016,-0.000736,-0.000052,  49.652
   526.8,0.000034,0.000015,-0.000766,-0.000052,  49.650
   527.0,0.000036,0.000019,-0.000801,-0.000052,  49.648
   527.2,0.000039,0.000021,-0.000772,-0.000052,  49.651
   527.4,0.000036,0.000025,-0.000717,-0.000039,  49.650
   527.6,0.000036,0.000025,-0.000623,-0.000052,  49.648
   527.8,0.000039,0.000027,-0.000594,-0.000052,  49.646
   528.0,0.000036,0.000029,-0.000579,-0.000039,  49.644
   528.2,0.000036,0.000031,-0.000574,-0.000039,  49.644
   528.4,0.000041,0.000033,-0.000599,-0.000039,  49.639
   528.6,0.000041,0.000029,-0.000644,-0.000074,  49.639
   528.8,0.000044,0.000031,-0.000723,-0.000061,  49.643
   529.0,0.000047,0.000029,-0.000822,-0.000039,  49.634
   529.2,0.000049,0.000029,-0.000841,-0.000074,  49.632
   529.4,0.000047,0.000029,-0.000855,-0.000061,  49.628
   529.6,0.000047,0.000027,-0.000845,-0.000039,  49.633
   529.8,0.000049,0.000027,-0.000811,-0.000074,  49.629
   530.0,0.000047,0.000023,-0.000736,-0.000061,  49.627
   530.2,0.000047,0.000025,-0.000636,-0.000039,  49.626
   530.4,0.000047,0.000023,-0.000642,-0.000074,  49.624
   530.6,0.000044,0.000016,-0.000672,-0.000074,  49.625
   530.8,0.000044,0.000018,-0.000726,-0.000052,  49.627
   531.0,0.000044,0.000020,-0.000776,-0.000087,  49.626
   531.2,0.000044,0.000018,-0.000845,-0.000087,  49.623
   531.4,0.000044,0.000020,-0.000919,-0.000052,  49.622
   531.6,0.000044,0.000026,-0.000894,-0.000087,  49.625
   531.8,0.000044,0.000030,-0.000835,-0.000087,  49.621
   532.0,0.000041,0.000030,-0.000731,-0.000052,  49.621
   532.2,0.000041,0.000030,-0.000700,-0.000100,  49.622
   532.4,0.000041,0.000035,-0.000710,-0.000065,  49.622
   532.6,0.000041,0.000035,-0.000760,-0.000030,  49.625
   532.8,0.000044,0.000033,-0.000715,-0.000065,  49.621
   533.0,0.000049,0.000040,-0.000640,-0.000030,  49.624
   533.2,0.000052,0.000045,-0.000566,-0.000017,  49.625
   533.4,0.000055,0.000046,-0.000560,-0.000039,  49.627
   533.6,0.000052,0.000048,-0.000604,-0.000004,  49.625
   533.8,0.000055,0.000052,-0.000678,-0.000017,  49.625
   534.0,0.000055,0.000061,-0.000678,-0.000052,  49.623
   534.2,0.000055,0.000065,-0.000657,-0.000039,  49.628
   534.4,0.000055,0.000061,-0.000632,-0.000039,  49.626
   534.6,0.000060,0.000065,-0.000657,-0.000074,  49.628
   534.8,0.000051,0.000065,-0.000697,-0.000061,  49.629
   535.0,0.000054,0.000066,-0.000756,-0.000026,  49.631
   535.2,0.000052,0.000074,-0.000731,-0.000061,  49.631
   535.4,0.000052,0.000071,-0.000681,-0.000026,  49.632
   535.6,0.000064,0.000076,-0.000612,-0.000004,  49.633
   535.8,0.000073,0.000079,-0.000566,-0.000039,  49.633
   536.0,0.000078,0.000076,-0.000541,0.000009,  49.631
   536.2,0.000076,0.000080,-0.000521,-0.000004,  49.627
   536.4,0.000085,0.000082,-0.000625,-0.000004,  49.632
   536.6,0.000090,0.000080,-0.000810,-0.000039,  49.634
   536.8,0.000089,0.000083,-0.001070,0.000009,  49.636
   537.0,0.000092,0.000083,-0.001075,0.000009,  49.634
   537.2,0.000094,0.000083,-0.001016,-0.000013,  49.637
   537.4,0.000097,0.000084,-0.000844,0.000022,  49.632
   537.6,0.000099,0.000088,-0.000609,0.000022,  49.633
   537.8,0.000102,0.000088,-0.000724,-0.000013,  49.629
   538.0,0.000099,0.000088,-0.000928,0.000035,  49.630
   538.2,0.000099,0.000088,-0.001232,0.000022,  49.630
   538.4,0.000102,0.000083,-0.001192,-0.000013,  49.635
   538.6,0.000099,0.000085,-0.001022,0.000035,  49.627
   538.8,0.000096,0.000081,-0.000742,0.000022,  49.629
   539.0,0.000098,0.000081,-0.000652,-0.000013,  49.629
   539.2,0.000098,0.000073,-0.000592,0.000035,  49.624
   539.4,0.000099,0.000075,-0.000565,0.000022,  49.623
   539.6,0.000093,0.000077,-0.000676,0.000022,  49.621
   539.8,0.000100,0.000074,-0.000892,0.000022,  49.624
   540.0,0.000097,0.000074,-0.001191,0.000044,  49.627
   540.2,0.000096,0.000079,-0.001156,0.000044,  49.623
   540.4,0.000088,0.000074,-0.001016,0.000009,  49.627
   540.6,0.000085,0.000075,-0.000771,0.000044,  49.627
   540.8,0.000094,0.000080,-0.000652,0.000044,  49.623
   541.0,0.000094,0.000075,-0.000527,0.000009,  49.627
   541.2,0.000090,0.000080,-0.000417,0.000044,  49.625
   541.4,0.000099,0.000084,-0.000382,0.000009,  49.626
   541.6,0.000099,0.000080,-0.000386,0.000022,  49.626
   541.8,0.000095,0.000082,-0.000424,0.000022,  49.627
   542.0,0.000095,0.000077,-0.000385,0.000000,  49.623
   542.2,0.000095,0.000071,-0.000324,0.000035,  49.627
   542.4,0.000089,0.000078,-0.000255,0.000035,  49.625
   542.6,0.000089,0.000079,-0.000276,0.000013,  49.626
   542.8,0.000089,0.000075,-0.000320,0.000035,  49.628
   543.0,0.000089,0.000076,-0.000394,0.000035,  49.625
   543.2,0.000089,0.000074,-0.000389,0.000013,  49.622
   543.4,0.000089,0.000073,-0.000360,0.000035,  49.626
   543.6,0.000089,0.000076,-0.000310,0.000035,  49.620
   543.8,0.000092,0.000073,-0.000285,0.000013,  49.622
   544.0,0.000089,0.000067,-0.000280,0.000035,  49.626
   544.2,0.000089,0.000069,-0.000285,0.000035,  49.627
   544.4,0.000092,0.000072,-0.000279,0.000013,  49.624
   544.6,0.000092,0.000071,-0.000294,0.000035,  49.619
   544.8,0.000094,0.000069,-0.000303,0.000035,  49.622
   545.0,0.000097,0.000071,-0.000338,0.000000,  49.624
   545.2,0.000099,0.000068,-0.000378,0.000035,  49.623
   545.4,0.000094,0.000070,-0.000442,0.000022,  49.625
   545.6,0.000094,0.000073,-0.000408,0.000022,  49.624
   545.8,0.000097,0.000069,-0.000324,-0.000013,  49.626
   546.0,0.000097,0.000070,-0.000199,0.000022,  49.624
   546.2,0.000097,0.000076,-0.000199,0.000009,  49.622
   546.4,0.000094,0.000075,-0.000239,-0.000013,  49.621
   546.6,0.000092,0.000072,-0.000329,-0.000013,  49.624
   546.8,0.000089,0.000076,-0.000354,-0.000026,  49.623
   547.0,0.000086,0.000074,-0.000373,-0.000061,  49.624
   547.2,0.000084,0.000076,-0.000383,-0.000061,  49.628
   547.4,0.000084,0.000077,-0.000388,-0.000026,  49.626
   547.6,0.000081,0.000075,-0.000383,-0.000061,  49.624
   547.8,0.000084,0.000075,-0.000348,-0.000061,  49.624
   548.0,0.000086,0.000073,-0.000308,-0.000026,  49.632
   548.2,0.000084,0.000075,-0.000283,-0.000061,  49.635
   548.4,0.000087,0.000067,-0.000273,-0.000061,  49.635
   548.6,0.000084,0.000071,-0.000273,-0.000026,  49.637
   548.8,0.000084,0.000077,-0.000269,-0.000061,  49.636
   549.0,0.000087,0.000077,-0.000258,-0.000061,  49.640
   549.2,0.000084,0.000074,-0.000242,-0.000026,  49.644
   549.4,0.000084,0.000069,-0.000226,-0.000061,  49.643
   549.6,0.000087,0.000065,-0.000247,-0.000061,  49.644
   549.8,0.000084,0.000069,-0.000267,-0.000026,  49.645
   550.0,0.000084,0.000069,-0.000242,-0.000061,  49.645
   550.2,0.000090,0.000069,-0.000228,-0.000048,  49.648
   550.4,0.000086,0.000073,-0.000204,-0.000013,  49.648
   550.6,0.000084,0.000077,-0.000185,-0.000048,  49.649
   550.8,0.000087,0.000074,-0.000164,-0.000035,  49.651
   551.0,0.000084,0.000077,-0.000154,-0.000013,  49.649
   551.2,0.000084,0.000078,-0.000541,-0.000048,  49.654
   551.4,0.000084,0.000073,-0.001104,-0.000035,  49.654
   551.6,0.000086,0.000075,-0.001898,-0.000013,  49.653
   551.8,0.000086,0.000080,-0.001969,-0.000048,  49.658
   552.0,0.000086,0.000075,-0.001768,-0.000035,  49.659
   552.2,0.000086,0.000075,-0.001323,-0.000013,  49.658
   552.4,0.000089,0.000080,-0.001144,-0.000048,  49.659
   552.6,0.000086,0.000075,-0.000959,-0.000035,  49.659
   552.8,0.000089,0.000080,-0.000785,-0.000013,  49.662
   553.0,0.000089,0.000084,-0.000664,-0.000048,  49.659
   553.2,0.000092,0.000082,-0.000610,-0.000035,  49.660
   553.4,0.000098,0.000084,-0.000579,-0.000013,  49.659
   553.6,0.000094,0.000088,-0.000519,-0.000048,  49.660
   553.8,0.000097,0.000087,-0.000469,-0.000035,  49.664
   554.0,0.000097,0.000085,-0.000433,-0.000013,  49.666
   554.2,0.000099,0.000084,-0.000394,-0.000013,  49.662
   554.4,0.000102,0.000083,-0.000364,0.000000,  49.666
   554.6,0.000107,0.000085,-0.000333,-0.000013,  49.665
   554.8,0.000104,0.000085,-0.000308,-0.000013,  49.667
   555.0,0.000098,0.000085,-0.000308,0.000000,  49.668
   555.2,0.000096,0.000089,-0.000303,-0.000013,  49.667
   555.4,0.000096,0.000097,-0.000438,-0.000013,  49.668
   555.6,0.000096,0.000102,-0.000623,-0.000048,  49.672
   555.8,0.000099,0.000100,-0.000898,-0.000035,  49.670
   556.0,0.000106,0.000096,-0.001216,-0.000013,  49.672
   556.2,0.000108,0.000096,-0.001191,-0.000048,  49.672
   556.4,0.000099,0.000099,-0.001061,-0.000035,  49.671
   556.6,0.000102,0.000100,-0.000830,-0.000013,  49.676
   556.8,0.000105,0.000100,-0.000695,-0.000048,  49.677
   557.0,0.000105,0.000097,-0.000585,-0.000035,  49.676
   557.2,0.000102,0.000096,-0.000469,-0.000013,  49.675
   557.4,0.000110,0.000096,-0.000349,-0.000048,  49.675
   557.6,0.000114,0.000098,-0.000249,0.000000,  49.683
   557.8,0.000108,0.000096,-0.000165,0.000022,  49.680
   558.0,0.000111,0.000090,-0.000109,-0.000013,  49.683
   558.2,0.000107,0.000087,-0.000088,0.000035,  49.685
   558.4,0.000103,0.000089,-0.000113,0.000022,  49.688
   558.6,0.000115,0.000089,-0.000113,0.000000,  49.688
   558.8,0.000112,0.000087,-0.000107,0.000000,  49.692
   559.0,0.000106,0.000082,-0.000132,0.000000,  49.691
   559.2,0.000112,0.000080,-0.000153,-0.000035,  49.696
   559.4,0.000107,0.000082,-0.000193,-0.000035,  49.696
   559.6,0.000101,0.000078,-0.000233,-0.000013,  49.694
   559.8,0.000103,0.000074,-0.000213,-0.000048,  49.696
   560.0,0.000103,0.000073,-0.000190,-0.000035,  49.700
   560.2,0.000097,0.000071,-0.000135,-0.000013,  49.698
   560.4,0.000097,0.000070,-0.000722,-0.000048,  49.699
   560.6,0.000103,0.000068,-0.001622,-0.000035,  49.697
   560.8,0.000097,0.000065,-0.002832,-0.000013,  49.702
   561.0,0.000094,0.000066,-0.003026,-0.000048,  49.704
   561.2,0.000098,0.000066,-0.002861,-0.000035,  49.714
   561.4,0.000098,0.000061,-0.002353,-0.000013,  49.712
   561.6,0.000095,0.000059,-0.002099,-0.000048,  49.712
   561.8,0.000089,0.000056,-0.001811,-0.000013,  49.715
   562.0,0.000093,0.000056,-0.001487,0.000009,  49.714
   562.2,0.000084,0.000056,-0.001259,-0.000026,  49.711
   562.4,0.000081,0.000056,-0.001053,0.000022,  49.714
   562.6,0.000087,0.000052,-0.000909,0.000022,  49.729
   562.8,0.000084,0.000053,-0.000811,-0.000013,  49.732
   563.0,0.000084,0.000047,-0.000740,0.000035,  49.733
   563.2,0.000087,0.000048,-0.000726,0.000022,  49.734
   563.4,0.000081,0.000052,-0.000676,-0.000013,  49.730
   563.6,0.000078,0.000046,-0.000651,0.000035,  49.732
   563.8,0.000079,0.000041,-0.000620,0.000022,  49.733
   564.0,0.000068,0.000040,-0.000561,0.000022,  49.732
   564.2,0.000073,0.000034,-0.000486,-0.000013,  49.733
   564.4,0.000075,0.000037,-0.000407,0.000022,  49.734
   564.6,0.000066,0.000033,-0.000382,0.000009,  49.731
   564.8,0.000072,0.000029,-0.000367,-0.000013,  49.727
   565.0,0.000075,0.000033,-0.000392,0.000022,  49.727
   565.2,0.000068,0.000034,-0.000432,0.000009,  49.722
   565.4,0.000068,0.000039,-0.000432,-0.000026,  49.724
   565.6,0.000066,0.000037,-0.000446,0.000009,  49.723
   565.8,0.000059,0.000042,-0.000457,-0.000004,  49.724
   566.0,0.000059,0.000038,-0.000462,-0.000039,  49.721
   566.2,0.000057,0.000040,-0.000462,0.000009,  49.720
   566.4,0.000050,0.000041,-0.000477,-0.000004,  49.718
   566.6,0.000057,0.000037,-0.000493,-0.000039,  49.720
   566.8,0.000057,0.000033,-0.000493,0.000009,  49.716
   567.0,0.000050,0.000038,-0.000498,-0.000004,  49.721
   567.2,0.000057,0.000039,-0.000524,-0.000039,  49.716
   567.4,0.000057,0.000039,-0.000528,0.000009,  49.717
   567.6,0.000050,0.000038,-0.000543,-0.000004,  49.717
   567.8,0.000057,0.000043,-0.000549,-0.000039,  49.716
   568.0,0.000057,0.000040,-0.000533,0.000009,  49.716
   568.2,0.000050,0.000042,-0.000543,-0.000004,  49.714
   568.4,0.000062,0.000044,-0.000709,-0.000039,  49.713
   568.6,0.000065,0.000043,-0.000938,0.000009,  49.716
   568.8,0.000061,0.000045,-0.001258,0.000009,  49.718
   569.0,0.000070,0.000050,-0.001409,-0.000026,  49.717
   569.2,0.000073,0.000052,-0.001503,0.000009,  49.715
   569.4,0.000069,0.000054,-0.001553,0.000009,  49.712
   569.6,0.000075,0.000054,-0.001509,-0.000026,  49.713
   569.8,0.000075,0.000060,-0.001389,0.000009,  49.709
   570.0,0.000074,0.000055,-0.001204,0.000009,  49.699
   570.2,0.000074,0.000054,-0.001079,-0.000026,  49.698
   570.4,0.000074,0.000058,-0.000970,0.000009,  49.694
   570.6,0.000077,0.000056,-0.000846,0.000009,  49.690
   570.8,0.000064,0.000056,-0.000746,-0.000026,  49.690
   571.0,0.000073,0.000056,-0.000671,0.000009,  49.688
   571.2,0.000070,0.000053,-0.000627,0.000009,  49.682
   571.4,0.000070,0.000053,-0.000606,-0.000026,  49.680
   571.6,0.000070,0.000051,-0.000625,0.000009,  49.681
   571.8,0.000068,0.000047,-0.000684,0.000009,  49.681
   572.0,0.000068,0.000049,-0.000844,-0.000026,  49.680
   572.2,0.000068,0.000049,-0.001069,0.000009,  49.679
   572.4,0.000068,0.000043,-0.001378,0.000009,  49.678
   572.6,0.000068,0.000047,-0.001389,0.000009,  49.678
   572.8,0.000070,0.000049,-0.001273,-0.000026,  49.672
   573.0,0.000070,0.000043,-0.001073,0.000022,  49.672
   573.2,0.000068,0.000047,-0.000993,0.000009,  49.672
   573.4,0.000068,0.000054,-0.000944,-0.000013,  49.669
   573.6,0.000069,0.000050,-0.000883,0.000022,  49.670
   573.8,0.000063,0.000052,-0.000863,0.000009,  49.673
   574.0,0.000060,0.000059,-0.000809,-0.000026,  49.666
   574.2,0.000066,0.000056,-0.000749,0.000009,  49.667
   574.4,0.000063,0.000065,-0.000684,-0.000004,  49.667
   574.6,0.000063,0.000062,-0.000624,-0.000039,  49.668
   574.8,0.000069,0.000066,-0.000574,0.000009,  49.668
   575.0,0.000068,0.000068,-0.000528,-0.000004,  49.667
   575.2,0.000068,0.000070,-0.000478,-0.000039,  49.669
   575.4,0.000074,0.000072,-0.000439,0.000009,  49.666
   575.6,0.000070,0.000074,-0.000403,-0.000004,  49.668
   575.8,0.000079,0.000078,-0.000424,-0.000039,  49.666
   576.0,0.000086,0.000078,-0.000468,0.000009,  49.668
   576.2,0.000082,0.000078,-0.000542,-0.000004,  49.669
   576.4,0.000088,0.000081,-0.000532,-0.000039,  49.669
   576.6,0.000097,0.000080,-0.000496,0.000009,  49.667
   576.8,0.000094,0.000082,-0.000436,0.000009,  49.669
   577.0,0.000096,0.000082,-0.000486,-0.000026,  49.668
   577.2,0.000105,0.000079,-0.000580,0.000009,  49.669
   577.4,0.000104,0.000081,-0.000708,-0.000004,  49.663
   577.6,0.000107,0.000077,-0.000669,-0.000039,  49.664
   577.8,0.000113,0.000073,-0.000595,0.000009,  49.663
   578.0,0.000110,0.000070,-0.000441,0.000009,  49.664
   578.2,0.000112,0.000071,-0.000416,-0.000026,  49.661
   578.4,0.000107,0.000067,-0.000424,0.000009,  49.666
   578.6,0.000107,0.000067,-0.000479,0.000009,  49.664
   578.8,0.000099,0.000070,-0.000429,-0.000026,  49.665
   579.0,0.000106,0.000066,-0.000360,0.000022,  49.665
   579.2,0.000099,0.000068,-0.000260,0.000022,  49.666
   579.4,0.000099,0.000075,-0.000210,-0.000013,  49.661
   579.6,0.000097,0.000073,-0.000201,0.000035,  49.664
   579.8,0.000094,0.000071,-0.000201,0.000022,  49.662
   580.0,0.000094,0.000068,-0.000201,-0.000013,  49.657
   580.2,0.000094,0.000066,-0.000230,0.000035,  49.661
   580.4,0.000098,0.000064,-0.000264,0.000022,  49.661
   580.6,0.000089,0.000065,-0.000249,-0.000013,  49.659
   580.8,0.000086,0.000067,-0.000230,0.000035,  49.659
   581.0,0.000087,0.000065,-0.000190,0.000022,  49.659
   581.2,0.000078,0.000064,-0.000230,0.000022,  49.666
   581.4,0.000076,0.000066,-0.000310,-0.000013,  49.657
   581.6,0.000079,0.000065,-0.000433,0.000009,  49.659
   581.8,0.000073,0.000060,-0.000469,-0.000004,  49.659
   582.0,0.000079,0.000055,-0.000473,-0.000026,  49.662
   582.2,0.000086,0.000057,-0.000458,-0.000004,  49.656
   582.4,0.000079,0.000057,-0.000423,-0.000004,  49.653
   582.6,0.000086,0.000057,-0.000394,-0.000039,  49.656
   582.8,0.000083,0.000053,-0.000360,0.000009,  49.657
   583.0,0.000077,0.000054,-0.000305,-0.000004,  49.659
   583.2,0.000083,0.000052,-0.000461,-0.000039,  49.655
   583.4,0.000081,0.000050,-0.000717,0.000009,  49.657
   583.6,0.000072,0.000050,-0.001076,-0.000004,  49.660
   583.8,0.000078,0.000048,-0.001286,-0.000039,  49.654
   584.0,0.000078,0.000050,-0.001471,0.000009,  49.659
   584.2,0.000069,0.000050,-0.001645,-0.000004,  49.656
   584.4,0.000069,0.000050,-0.001875,-0.000039,  49.657
   584.6,0.000072,0.000049,-0.002124,0.000009,  49.660
   584.8,0.000068,0.000050,-0.002403,0.000009,  49.659
   585.0,0.000068,0.000050,-0.002299,-0.000026,  49.656
   585.2,0.000074,0.000051,-0.002026,-0.000013,  49.659
   585.4,0.000070,0.000057,-0.001566,-0.000013,  49.658
   585.6,0.000073,0.000058,-0.001317,-0.000048,  49.657
   585.8,0.000073,0.000063,-0.001109,-0.000035,  49.657
   586.0,0.000076,0.000064,-0.000899,-0.000013,  49.660
   586.2,0.000076,0.000069,-0.000793,-0.000048,  49.659
   586.4,0.000078,0.000071,-0.000762,-0.000035,  49.659
   586.6,0.000081,0.000065,-0.000796,-0.000013,  49.655
   586.8,0.000081,0.000069,-0.000740,-0.000048,  49.654
   587.0,0.000084,0.000069,-0.000690,-0.000035,  49.656
   587.2,0.000089,0.000070,-0.000640,-0.000013,  49.659
   587.4,0.000089,0.000069,-0.000595,-0.000048,  49.658
   587.6,0.000092,0.000067,-0.000574,-0.000035,  49.661
   587.8,0.000094,0.000068,-0.000574,-0.000013,  49.659
   588.0,0.000094,0.000069,-0.000554,-0.000048,  49.659
   588.2,0.000092,0.000065,-0.000544,-0.000035,  49.657
   588.4,0.000092,0.000069,-0.000554,-0.000013,  49.653
   588.6,0.000092,0.000069,-0.000529,-0.000048,  49.656
   588.8,0.000086,0.000064,-0.000510,-0.000035,  49.655
   589.0,0.000084,0.000071,-0.000474,-0.000013,  49.657
   589.2,0.000081,0.000069,-0.000615,-0.000048,  49.653
   589.4,0.000081,0.000066,-0.000830,-0.000035,  49.655
   589.6,0.000081,0.000068,-0.001134,-0.000013,  49.657
   589.8,0.000084,0.000064,-0.001119,-0.000048,  49.658
   590.0,0.000084,0.000063,-0.000974,-0.000035,  49.655
   590.2,0.000087,0.000065,-0.000745,-0.000013,  49.660
   590.4,0.000084,0.000062,-0.000630,-0.000013,  49.659
   590.6,0.000084,0.000060,-0.000520,0.000000,  49.659
   590.8,0.000087,0.000064,-0.000430,-0.000013,  49.660
   591.0,0.000084,0.000063,-0.000380,-0.000013,  49.652
   591.2,0.000084,0.000056,-0.000354,0.000000,  49.660
   591.4,0.000087,0.000063,-0.000379,-0.000013,  49.662
   591.6,0.000084,0.000065,-0.000679,-0.000013,  49.659
   591.8,0.000084,0.000065,-0.001160,-0.000048,  49.663
   592.0,0.000090,0.000067,-0.001789,-0.000035,  49.663
   592.2,0.000086,0.000071,-0.002581,-0.000013,  49.665
   592.4,0.000084,0.000074,-0.002461,-0.000048,  49.667
   592.6,0.000090,0.000076,-0.002103,-0.000035,  49.664
   592.8,0.000089,0.000078,-0.001470,-0.000013,  49.665
   593.0,0.000089,0.000081,-0.001225,-0.000048,  49.665
   593.2,0.000092,0.000082,-0.001065,-0.000035,  49.673
   593.4,0.000094,0.000086,-0.000953,-0.000013,  49.665
   593.6,0.000097,0.000084,-0.000827,-0.000048,  49.670
   593.8,0.000094,0.000084,-0.000742,-0.000035,  49.669
   594.0,0.000094,0.000090,-0.000686,-0.000013,  49.672
   594.2,0.000097,0.000092,-0.000570,-0.000048,  49.669
   594.4,0.000097,0.000092,-0.000460,-0.000035,  49.673
   594.6,0.000097,0.000094,-0.000356,-0.000013,  49.669
   594.8,0.000099,0.000098,-0.000470,-0.000035,  49.673
   595.0,0.000099,0.000092,-0.000710,-0.000035,  49.674
   595.2,0.000102,0.000092,-0.001068,0.000000,  49.672
   595.4,0.000107,0.000089,-0.001039,-0.000035,  49.677
   595.6,0.000113,0.000085,-0.000875,0.000000,  49.679
   595.8,0.000113,0.000082,-0.000575,0.000022,  49.681
   596.0,0.000113,0.000077,-0.000485,0.000000,  49.682
   596.2,0.000113,0.000075,-0.000425,0.000035,  49.681
   596.4,0.000113,0.000073,-0.000409,0.000035,  49.686
   596.6,0.000113,0.000067,-0.000354,0.000013,  49.682
   596.8,0.000110,0.000058,-0.000294,0.000035,  49.684
   597.0,0.000110,0.000059,-0.000235,0.000035,  49.684
   597.2,0.000110,0.000058,-0.000216,0.000000,  49.688
   597.4,0.000107,0.000053,-0.000216,0.000035,  49.692
   597.6,0.000105,0.000055,-0.000226,0.000022,  49.692
   597.8,0.000102,0.000054,-0.000226,-0.000013,  49.692
   598.0,0.000099,0.000054,-0.000231,0.000035,  49.695
   598.2,0.000098,0.000052,-0.000245,0.000022,  49.696
   598.4,0.000089,0.000048,-0.000226,0.000022,  49.692
   598.6,0.000090,0.000042,-0.000201,0.000022,  49.696
   598.8,0.000091,0.000040,-0.000172,0.000031,  49.699
   599.0,0.000082,0.000038,-0.000172,0.000031,  49.698
   599.2,0.000086,0.000036,-0.000197,-0.000004,  49.697
   599.4,0.000086,0.000034,-0.000226,0.000031,  49.696
   599.6,0.000079,0.000041,-0.000201,-0.000004,  49.699
   599.8,0.000086,0.000039,-0.000172,-0.000026,  49.702
   600.0,0.000083,0.000041,-0.000123,-0.000004,  49.704
   600.2,0.000077,0.000038,-0.000129,-0.000004,  49.704
   600.4,0.000083,0.000037,-0.000138,-0.000039,  49.705
   600.6,0.000081,0.000032,-0.000179,-0.000004,  49.707
   600.8,0.000072,0.000038,-0.000228,-0.000017,  49.705
   601.0,0.000078,0.000040,-0.000233,-0.000052,  49.708
   601.2,0.000078,0.000040,-0.000219,-0.000004,  49.712
   601.4,0.000069,0.000047,-0.000214,-0.000004,  49.730
   601.6,0.000075,0.000052,-0.000249,-0.000039,  49.732
   601.8,0.000078,0.000052,-0.000294,0.000009,  49.733
   602.0,0.000074,0.000056,-0.000369,0.000009,  49.733
   602.2,0.000081,0.000057,-0.000360,-0.000026,  49.736
   602.4,0.000081,0.000061,-0.000320,0.000009,  49.733
   602.6,0.000077,0.000065,-0.000251,0.000009,  49.735
   602.8,0.000086,0.000066,-0.000252,-0.000026,  49.735
   603.0,0.000083,0.000068,-0.000262,0.000009,  49.741
   603.2,0.000077,0.000070,-0.000282,0.000009,  49.737
   603.4,0.000088,0.000068,-0.000307,-0.000026,  49.738
   603.6,0.000088,0.000066,-0.000346,0.000022,  49.740
   603.8,0.000085,0.000067,-0.000385,0.000022,  49.743
   604.0,0.000087,0.000070,-0.000395,-0.000013,  49.745
