Run Name,Run 1
Run Date,03:08:42 PM   04-03-15
Method Name,12% C.4
Export Format Version, 1.00
Method ID, 2486
Points/Second, 5.00
Number of Records,   2789
Offset from Run Start Time,00:00:00
Run End Time,00:09:18
Time,Second
QuadTec 1, (280.0 nm), AU
QuadTec 2, (260.0 nm), AU
Gradient Pump,<Not Selected>
QuadTec 3, (214.0 nm), AU
QuadTec 4, (405.0 nm), AU
Conductivity,mS/cm
Trace 6,<Not Available>
GP Pressure,<Not Selected>
Volume,<Not Selected>
Fraction,<Not Available>
Time,QuadTec 1,QuadTec 2,QuadTec 3,QuadTec 4,Conductivity
     0.0,-0.809295,-0.831001,-0.620908,-0.775569,   8.492
     0.2,-0.809305,-0.831004,-0.620820,-0.775607,   8.489
     0.4,-0.809315,-0.831004,-0.620752,-0.775556,   8.490
     0.6,-0.808909,-0.830998,-0.620697,-0.775531,   8.490
     0.8,0.000000,-0.830994,-0.620685,-0.775569,   8.495
     1.0,0.000000,-0.830997,-0.620705,-0.775518,   8.490
     1.2,0.000000,0.000000,-0.622740,-0.775531,   8.486
     1.4,0.000000,0.000000,-0.622740,-0.775582,   8.490
     1.6,0.000000,0.000000,-0.622740,-0.775558,   8.483
     1.8,0.000000,0.000000,-0.622740,-0.775585,   8.482
     2.0,0.000000,0.000000,0.000000,-0.775041,   8.485
     2.2,0.000000,0.000000,0.000000,0.000000,   8.485
     2.4,0.000000,0.000000,0.000000,0.000000,   8.483
     2.6,0.000000,0.000000,0.000000,0.000000,   8.482
     2.8,0.000000,0.000000,0.000000,0.000000,   8.483
     3.0,0.000000,0.000000,0.000000,0.000000,   8.480
     3.2,0.000000,0.000000,0.000000,0.000000,   8.481
     3.4,0.000000,0.000000,0.000000,0.000000,   8.481
     3.6,0.000000,0.000000,0.000000,0.000000,   8.479
     3.8,0.000000,0.000000,0.000000,0.000000,   8.480
     4.0,0.000000,0.000000,0.000000,0.000000,   8.477
     4.2,0.000000,0.000000,0.000000,0.000000,   8.476
     4.4,-0.000533,0.000000,0.000000,0.000000,   8.477
     4.6,-0.000931,0.000000,0.000000,0.000000,   8.480
     4.8,-0.001224,0.000000,0.000000,0.000000,   8.473
     5.0,-0.001397,0.000000,0.000000,0.000000,   8.477
     5.2,-0.001466,0.000000,0.000000,0.000000,   8.476
     5.4,-0.001410,0.000000,0.000000,0.000000,   8.476
     5.6,-0.001432,0.000000,0.000000,0.000000,   8.473
     5.8,-0.001432,-0.001074,-0.002465,0.000000,   8.474
     6.0,-0.001406,-0.001187,-0.002794,0.000000,   8.476
     6.2,-0.001381,-0.001279,-0.003318,0.000000,   8.476
     6.4,-0.001348,-0.001348,-0.004038,0.000000,   8.472
     6.6,-0.001289,-0.001405,-0.004946,-0.000605,   8.474
     6.8,-0.001233,-0.001431,-0.006060,-0.000789,   8.473
     7.0,-0.001182,-0.001443,-0.007372,-0.000936,   8.472
     7.2,-0.001113,-0.001453,-0.008286,-0.001057,   8.473
     7.4,-0.001048,-0.001449,-0.009103,-0.001150,   8.475
     7.6,-0.000994,-0.001422,-0.009825,-0.001217,   8.479
     7.8,-0.000918,-0.001389,-0.010186,-0.001297,   8.477
     8.0,-0.000856,-0.001361,-0.010335,-0.001324,   8.475
     8.2,-0.000808,-0.001317,-0.010242,-0.001324,   8.478
     8.4,-0.000745,-0.001267,-0.010464,-0.001310,   8.472
     8.6,-0.000693,-0.001217,-0.010703,-0.001297,   8.474
     8.8,-0.000654,-0.001162,-0.010947,-0.001270,   8.475
     9.0,-0.000600,-0.001107,-0.011166,-0.001230,   8.472
     9.2,-0.000563,-0.001049,-0.011376,-0.001190,   8.472
     9.4,-0.000532,-0.001002,-0.011551,-0.001123,   8.474
     9.6,-0.000507,-0.000954,-0.012217,-0.001057,   8.471
     9.8,-0.000486,-0.000903,-0.013158,-0.000990,   8.472
    10.0,-0.000455,-0.000859,-0.014312,-0.000936,   8.472
    10.2,-0.000413,-0.000824,-0.014408,-0.000896,   8.474
    10.4,-0.000382,-0.000789,-0.014124,-0.000843,   8.470
    10.6,-0.000354,-0.000751,-0.013395,-0.000803,   8.476
    10.8,-0.000330,-0.000718,-0.013212,-0.000763,   8.473
    11.0,-0.000308,-0.000685,-0.013122,-0.000709,   8.476
    11.2,-0.000290,-0.000653,-0.013082,-0.000669,   8.473
    11.4,-0.000271,-0.000618,-0.012964,-0.000642,   8.475
    11.6,-0.000259,-0.000595,-0.012874,-0.000589,   8.469
    11.8,-0.000243,-0.000571,-0.012788,-0.000575,   8.472
    12.0,-0.000225,-0.000550,-0.012711,-0.000562,   8.472
    12.2,-0.000206,-0.000534,-0.012613,-0.000522,   8.475
    12.4,-0.000187,-0.000512,-0.012507,-0.000509,   8.472
    12.6,-0.000172,-0.000493,-0.012507,-0.000495,   8.475
    12.8,-0.000163,-0.000485,-0.012548,-0.000482,   8.469
    13.0,-0.000147,-0.000471,-0.012633,-0.000455,   8.470
    13.2,-0.000138,-0.000450,-0.012674,-0.000455,   8.472
    13.4,-0.000132,-0.000433,-0.012698,-0.000442,   8.472
    13.6,-0.000123,-0.000426,-0.012771,-0.000428,   8.470
    13.8,-0.000113,-0.000410,-0.012792,-0.000415,   8.470
    14.0,-0.000107,-0.000398,-0.012767,-0.000402,   8.470
    14.2,-0.000093,-0.000384,-0.012742,-0.000388,   8.469
    14.4,-0.000087,-0.000375,-0.012697,-0.000426,   8.467
    14.6,-0.000084,-0.000369,-0.012745,-0.000388,   8.465
    14.8,-0.000081,-0.000365,-0.012798,-0.000412,   8.468
    15.0,-0.000078,-0.000347,-0.012863,-0.000399,   8.469
    15.2,-0.000082,-0.000338,-0.012884,-0.000348,   8.469
    15.4,-0.000084,-0.000341,-0.012891,-0.000321,   8.470
    15.6,-0.000084,-0.000335,-0.012879,-0.000321,   8.468
    15.8,-0.000076,-0.000333,-0.012907,-0.000321,   8.472
    16.0,-0.000069,-0.000336,-0.012935,-0.000308,   8.472
    16.2,-0.000069,-0.000331,-0.012980,-0.000308,   8.467
    16.4,-0.000072,-0.000328,-0.012980,-0.000308,   8.465
    16.6,-0.000064,-0.000331,-0.012996,-0.000294,   8.468
    16.8,-0.000064,-0.000321,-0.013016,-0.000294,   8.470
    17.0,-0.000078,-0.000321,-0.013004,-0.000294,   8.470
    17.2,-0.000078,-0.000324,-0.013011,-0.000281,   8.466
    17.4,-0.000078,-0.000323,-0.012991,-0.000294,   8.471
    17.6,-0.000081,-0.000317,-0.013032,-0.000294,   8.468
    17.8,-0.000084,-0.000317,-0.013097,-0.000281,   8.470
    18.0,-0.000084,-0.000312,-0.013174,-0.000294,   8.468
    18.2,-0.000084,-0.000317,-0.013207,-0.000308,   8.466
    18.4,-0.000087,-0.000319,-0.013227,-0.000294,   8.469
    18.6,-0.000087,-0.000317,-0.013239,-0.000294,   8.468
    18.8,-0.000090,-0.000315,-0.013543,-0.000308,   8.461
    19.0,-0.000090,-0.000323,-0.013997,-0.000294,   8.465
    19.2,-0.000087,-0.000326,-0.014616,-0.000294,   8.465
    19.4,-0.000090,-0.000325,-0.014668,-0.000308,   8.464
    19.6,-0.000093,-0.000325,-0.014531,-0.000294,   8.462
    19.8,-0.000090,-0.000325,-0.014235,-0.000294,   8.470
    20.0,-0.000093,-0.000325,-0.014130,-0.000308,   8.463
    20.2,-0.000096,-0.000328,-0.014037,-0.000294,   8.465
    20.4,-0.000096,-0.000331,-0.013993,-0.000308,   8.466
    20.6,-0.000096,-0.000331,-0.013903,-0.000321,   8.465
    20.8,-0.000100,-0.000336,-0.013798,-0.000308,   8.469
    21.0,-0.000100,-0.000333,-0.013720,-0.000321,   8.466
    21.2,-0.000096,-0.000333,-0.013675,-0.000321,   8.467
    21.4,-0.000100,-0.000338,-0.013635,-0.000308,   8.465
    21.6,-0.000100,-0.000333,-0.013635,-0.000321,   8.469
    21.8,-0.000096,-0.000333,-0.013590,-0.000321,   8.465
    22.0,-0.000100,-0.000339,-0.013505,-0.000335,   8.465
    22.2,-0.000104,-0.000333,-0.013420,-0.000321,   8.468
    22.4,-0.000104,-0.000330,-0.013335,-0.000372,   8.464
    22.6,-0.000104,-0.000333,-0.013290,-0.000335,   8.468
    22.8,-0.000108,-0.000331,-0.013257,-0.000372,   8.466
    23.0,-0.000108,-0.000334,-0.013245,-0.000372,   8.465
    23.2,-0.000101,-0.000334,-0.013277,-0.000335,   8.464
    23.4,-0.000090,-0.000331,-0.013350,-0.000335,   8.465
    23.6,-0.000090,-0.000330,-0.013440,-0.000335,   8.464
    23.8,-0.000090,-0.000336,-0.013440,-0.000324,   8.466
    24.0,-0.000080,-0.000330,-0.013435,-0.000361,   8.467
    24.2,-0.000080,-0.000327,-0.013370,-0.000348,   8.465
    24.4,-0.000084,-0.000325,-0.013338,-0.000324,   8.467
    24.6,-0.000084,-0.000325,-0.013338,-0.000361,   8.465
    24.8,-0.000084,-0.000324,-0.013338,-0.000348,   8.465
    25.0,-0.000084,-0.000324,-0.013338,-0.000361,   8.465
    25.2,-0.000084,-0.000320,-0.013391,-0.000361,   8.465
    25.4,-0.000084,-0.000315,-0.013435,-0.000348,   8.463
    25.6,-0.000084,-0.000313,-0.013423,-0.000348,   8.464
    25.8,-0.000084,-0.000313,-0.013411,-0.000348,   8.463
    26.0,-0.000084,-0.000315,-0.013378,-0.000348,   8.466
    26.2,-0.000084,-0.000317,-0.013431,-0.000348,   8.466
    26.4,-0.000081,-0.000322,-0.013529,-0.000348,   8.465
    26.6,-0.000078,-0.000314,-0.013638,-0.000335,   8.467
    26.8,-0.000071,-0.000311,-0.013659,-0.000335,   8.466
    27.0,-0.000067,-0.000314,-0.013679,-0.000335,   8.464
    27.2,-0.000064,-0.000307,-0.013659,-0.000335,   8.465
    27.4,-0.000075,-0.000308,-0.014060,-0.000310,   8.462
    27.6,-0.000067,-0.000308,-0.014691,-0.000348,   8.464
    27.8,-0.000075,-0.000306,-0.015530,-0.000335,   8.464
    28.0,-0.000075,-0.000306,-0.015542,-0.000335,   8.465
    28.2,-0.000075,-0.000309,-0.015300,-0.000335,   8.471
    28.4,-0.000075,-0.000307,-0.014755,-0.000321,   8.469
    28.6,-0.000075,-0.000304,-0.014513,-0.000335,   8.465
    28.8,-0.000067,-0.000301,-0.014310,-0.000335,   8.470
    29.0,-0.000072,-0.000302,-0.014120,-0.000321,   8.470
    29.2,-0.000064,-0.000303,-0.014003,-0.000297,   8.468
    29.4,-0.000054,-0.000303,-0.013950,-0.000321,   8.468
    29.6,-0.000058,-0.000300,-0.013922,-0.000321,   8.469
    29.8,-0.000051,-0.000301,-0.013837,-0.000284,   8.467
    30.0,-0.000048,-0.000299,-0.013772,-0.000308,   8.469
    30.2,-0.000052,-0.000294,-0.013694,-0.000321,   8.471
    30.4,-0.000044,-0.000292,-0.013642,-0.000321,   8.471
    30.6,-0.000044,-0.000289,-0.013662,-0.000308,   8.467
    30.8,-0.000049,-0.000289,-0.013687,-0.000321,   8.473
    31.0,-0.000049,-0.000292,-0.013674,-0.000321,   8.476
    31.2,-0.000052,-0.000289,-0.013662,-0.000321,   8.474
    31.4,-0.000056,-0.000290,-0.013642,-0.000321,   8.475
    31.6,-0.000056,-0.000289,-0.013622,-0.000359,   8.472
    31.8,-0.000052,-0.000286,-0.013577,-0.000321,   8.474
    32.0,-0.000056,-0.000287,-0.013532,-0.000359,   8.477
    32.2,-0.000056,-0.000291,-0.013467,-0.000359,   8.474
    32.4,-0.000052,-0.000286,-0.013467,-0.000321,   8.476
    32.6,-0.000053,-0.000289,-0.013499,-0.000308,   8.474
    32.8,-0.000050,-0.000293,-0.013577,-0.000321,   8.477
    33.0,-0.000050,-0.000297,-0.013642,-0.000321,   8.475
    33.2,-0.000047,-0.000294,-0.013739,-0.000308,   8.476
    33.4,-0.000044,-0.000292,-0.013829,-0.000321,   8.482
    33.6,-0.000043,-0.000295,-0.013837,-0.000321,   8.481
    33.8,-0.000050,-0.000293,-0.013804,-0.000308,   8.476
    34.0,-0.000047,-0.000288,-0.013719,-0.000321,   8.475
    34.2,-0.000043,-0.000285,-0.013719,-0.000321,   8.478
    34.4,-0.000050,-0.000288,-0.013759,-0.000308,   8.477
    34.6,-0.000047,-0.000291,-0.013804,-0.000321,   8.478
    34.8,-0.000040,-0.000285,-0.013792,-0.000321,   8.480
    35.0,-0.000047,-0.000283,-0.013792,-0.000308,   8.480
    35.2,-0.000044,-0.000286,-0.013759,-0.000308,   8.480
    35.4,-0.000036,-0.000281,-0.014168,-0.000308,   8.482
    35.6,-0.000044,-0.000275,-0.014779,-0.000294,   8.480
    35.8,-0.000041,-0.000277,-0.015610,-0.000294,   8.481
    36.0,-0.000036,-0.000274,-0.015832,-0.000308,   8.482
    36.2,-0.000041,-0.000274,-0.015884,-0.000294,   8.482
    36.4,-0.000041,-0.000271,-0.015727,-0.000294,   8.481
    36.6,-0.000033,-0.000271,-0.016270,-0.000308,   8.485
    36.8,-0.000033,-0.000276,-0.017066,-0.000294,   8.486
    37.0,-0.000041,-0.000280,-0.018135,-0.000294,   8.485
    37.2,-0.000041,-0.000275,-0.018195,-0.000308,   8.486
    37.4,-0.000033,-0.000281,-0.017835,-0.000294,   8.486
    37.6,-0.000038,-0.000276,-0.017158,-0.000294,   8.485
    37.8,-0.000033,-0.000269,-0.016704,-0.000308,   8.484
    38.0,-0.000033,-0.000267,-0.016141,-0.000294,   8.488
    38.2,-0.000038,-0.000266,-0.015521,-0.000294,   8.487
    38.4,-0.000038,-0.000270,-0.015142,-0.000308,   8.489
    38.6,-0.000038,-0.000265,-0.014847,-0.000294,   8.487
    38.8,-0.000035,-0.000267,-0.014629,-0.000294,   8.491
    39.0,-0.000032,-0.000272,-0.014386,-0.000308,   8.487
    39.2,-0.000032,-0.000272,-0.014196,-0.000294,   8.490
    39.4,-0.000028,-0.000269,-0.014079,-0.000294,   8.491
    39.6,-0.000028,-0.000266,-0.013949,-0.000308,   8.488
    39.8,-0.000032,-0.000269,-0.013815,-0.000332,   8.494
    40.0,-0.000028,-0.000266,-0.013771,-0.000332,   8.493
    40.2,-0.000028,-0.000267,-0.013823,-0.000345,   8.488
    40.4,-0.000028,-0.000268,-0.013925,-0.000345,   8.491
    40.6,-0.000028,-0.000271,-0.014132,-0.000332,   8.490
    40.8,-0.000024,-0.000266,-0.014165,-0.000345,   8.492
    41.0,-0.000015,-0.000264,-0.014145,-0.000308,   8.491
    41.2,-0.000020,-0.000264,-0.014088,-0.000332,   8.492
    41.4,-0.000017,-0.000258,-0.013970,-0.000332,   8.495
    41.6,-0.000014,-0.000258,-0.013950,-0.000294,   8.487
    41.8,-0.000018,-0.000253,-0.013962,-0.000281,   8.493
    42.0,-0.000010,-0.000258,-0.013982,-0.000294,   8.494
    42.2,-0.000010,-0.000261,-0.013950,-0.000294,   8.492
    42.4,-0.000015,-0.000263,-0.013917,-0.000281,   8.495
    42.6,-0.000004,-0.000257,-0.013905,-0.000294,   8.490
    42.8,-0.000004,-0.000254,-0.013860,-0.000294,   8.494
    43.0,-0.000012,-0.000257,-0.013795,-0.000281,   8.494
    43.2,-0.000009,-0.000249,-0.013763,-0.000294,   8.495
    43.4,-0.000009,-0.000252,-0.013783,-0.000294,   8.493
    43.6,-0.000013,-0.000247,-0.013815,-0.000281,   8.494
    43.8,-0.000010,-0.000243,-0.013893,-0.000281,   8.496
    44.0,0.000001,-0.000240,-0.013828,-0.000281,   8.493
    44.2,-0.000004,-0.000243,-0.013698,-0.000268,   8.495
    44.4,-0.000004,-0.000246,-0.013495,-0.000268,   8.497
    44.6,0.000004,-0.000246,-0.013482,-0.000281,   8.496
    44.8,0.000004,-0.000241,-0.013523,-0.000268,   8.493
    45.0,-0.000001,-0.000241,-0.013592,-0.000268,   8.495
    45.2,-0.000001,-0.000239,-0.013645,-0.000268,   8.498
    45.4,0.000007,-0.000236,-0.013710,-0.000268,   8.500
    45.6,0.000003,-0.000234,-0.013787,-0.000268,   8.498
    45.8,0.000013,-0.000234,-0.013808,-0.000268,   8.501
    46.0,0.000013,-0.000231,-0.013795,-0.000268,   8.496
    46.2,0.000012,-0.000229,-0.013755,-0.000268,   8.496
    46.4,0.000018,-0.000224,-0.013787,-0.000268,   8.502
    46.6,0.000025,-0.000225,-0.013845,-0.000268,   8.500
    46.8,0.000024,-0.000223,-0.013962,-0.000268,   8.498
    47.0,0.000030,-0.000218,-0.013950,-0.000268,   8.496
    47.2,0.000044,-0.000219,-0.013913,-0.000268,   8.499
    47.4,0.000043,-0.000224,-0.013823,-0.000268,   8.503
    47.6,0.000046,-0.000219,-0.013843,-0.000268,   8.496
    47.8,0.000056,-0.000214,-0.013929,-0.000268,   8.495
    48.0,0.000055,-0.000211,-0.014071,-0.000268,   8.494
    48.2,0.000055,-0.000201,-0.014123,-0.000268,   8.498
    48.4,0.000066,-0.000193,-0.014156,-0.000254,   8.498
    48.6,0.000061,-0.000191,-0.014209,-0.000241,   8.498
    48.8,0.000064,-0.000193,-0.014188,-0.000241,   8.499
    49.0,0.000072,-0.000188,-0.014164,-0.000241,   8.496
    49.2,0.000068,-0.000184,-0.014079,-0.000241,   8.496
    49.4,0.000068,-0.000180,-0.014014,-0.000279,   8.496
    49.6,0.000071,-0.000180,-0.013969,-0.000241,   8.498
    49.8,0.000074,-0.000185,-0.013957,-0.000265,   8.497
    50.0,0.000071,-0.000178,-0.013964,-0.000265,   8.497
    50.2,0.000078,-0.000176,-0.013960,-0.000228,   8.495
    50.4,0.000071,-0.000173,-0.013960,-0.000228,   8.497
    50.6,0.000071,-0.000169,-0.013972,-0.000214,   8.499
    50.8,0.000075,-0.000177,-0.013992,-0.000214,   8.502
    51.0,0.000068,-0.000172,-0.014013,-0.000214,   8.498
    51.2,0.000068,-0.000172,-0.014025,-0.000201,   8.498
    51.4,0.000069,-0.000176,-0.014025,-0.000214,   8.497
    51.6,0.000058,-0.000181,-0.014033,-0.000214,   8.498
    51.8,0.000058,-0.000173,-0.013985,-0.000201,   8.496
    52.0,0.000063,-0.000176,-0.013972,-0.000214,   8.496
    52.2,0.000052,-0.000179,-0.013952,-0.000214,   8.497
    52.4,0.000059,-0.000179,-0.013932,-0.000201,   8.496
    52.6,0.000067,-0.000179,-0.013887,-0.000214,   8.497
    52.8,0.000063,-0.000178,-0.013814,-0.000214,   8.499
    53.0,0.000064,-0.000182,-0.013769,-0.000201,   8.495
    53.2,0.000058,-0.000185,-0.014296,-0.000214,   8.497
    53.4,0.000055,-0.000185,-0.015096,-0.000214,   8.495
    53.6,0.000050,-0.000183,-0.016180,-0.000214,   8.497
    53.8,0.000047,-0.000184,-0.016180,-0.000228,   8.499
    54.0,0.000047,-0.000187,-0.015790,-0.000228,   8.497
    54.2,0.000040,-0.000192,-0.014971,-0.000228,   8.495
    54.4,0.000044,-0.000198,-0.014708,-0.000228,   8.499
    54.6,0.000038,-0.000200,-0.014571,-0.000228,   8.497
    54.8,0.000027,-0.000202,-0.014483,-0.000241,   8.497
    55.0,0.000027,-0.000198,-0.014305,-0.000254,   8.497
    55.2,0.000032,-0.000200,-0.014183,-0.000254,   8.494
    55.4,0.000024,-0.000206,-0.014025,-0.000254,   8.497
    55.6,0.000021,-0.000209,-0.014078,-0.000254,   8.497
    55.8,0.000025,-0.000215,-0.014255,-0.000254,   8.498
    56.0,0.000021,-0.000220,-0.014543,-0.000254,   8.496
    56.2,0.000021,-0.000209,-0.014535,-0.000254,   8.497
    56.4,0.000018,-0.000207,-0.014470,-0.000254,   8.498
    56.6,0.000021,-0.000212,-0.014337,-0.000254,   8.498
    56.8,0.000018,-0.000212,-0.014252,-0.000254,   8.497
    57.0,0.000015,-0.000212,-0.014147,-0.000254,   8.496
    57.2,0.000015,-0.000211,-0.014062,-0.000254,   8.495
    57.4,0.000015,-0.000213,-0.013964,-0.000254,   8.497
    57.6,0.000019,-0.000213,-0.013847,-0.000254,   8.495
    57.8,0.000012,-0.000219,-0.013769,-0.000254,   8.494
    58.0,0.000012,-0.000214,-0.013757,-0.000217,   8.494
    58.2,0.000016,-0.000208,-0.013769,-0.000217,   8.490
    58.4,0.000009,-0.000213,-0.013814,-0.000217,   8.493
    58.6,0.000006,-0.000215,-0.013904,-0.000203,   8.494
    58.8,0.000010,-0.000215,-0.013884,-0.000217,   8.494
    59.0,0.000003,-0.000212,-0.013884,-0.000241,   8.495
    59.2,0.000003,-0.000220,-0.013864,-0.000241,   8.494
    59.4,0.000010,-0.000226,-0.013811,-0.000254,   8.496
    59.6,0.000003,-0.000223,-0.013786,-0.000254,   8.491
    59.8,0.000003,-0.000218,-0.013734,-0.000254,   8.495
    60.0,0.000010,-0.000212,-0.013741,-0.000254,   8.497
    60.2,-0.000001,-0.000212,-0.013774,-0.000254,   8.496
    60.4,-0.000001,-0.000215,-0.013839,-0.000254,   8.495
    60.6,0.000007,-0.000215,-0.013827,-0.000254,   8.495
    60.8,-0.000004,-0.000215,-0.013806,-0.000254,   8.495
    61.0,-0.000004,-0.000220,-0.013778,-0.000254,   8.493
    61.2,0.000007,-0.000223,-0.013786,-0.000254,   8.494
    61.4,-0.000001,-0.000225,-0.013799,-0.000254,   8.492
    61.6,-0.000001,-0.000224,-0.013851,-0.000254,   8.494
    61.8,0.000004,-0.000227,-0.013827,-0.000254,   8.494
    62.0,-0.000001,-0.000223,-0.013774,-0.000254,   8.493
    62.2,-0.000004,-0.000223,-0.013669,-0.000254,   8.493
    62.4,0.000001,-0.000226,-0.014300,-0.000254,   8.494
    62.6,0.000001,-0.000231,-0.015290,-0.000268,   8.494
    62.8,-0.000004,-0.000229,-0.016623,-0.000268,   8.495
    63.0,-0.000004,-0.000226,-0.017189,-0.000268,   8.496
    63.2,0.000004,-0.000235,-0.017566,-0.000281,   8.493
    63.4,-0.000001,-0.000230,-0.017762,-0.000281,   8.492
    63.6,0.000007,-0.000227,-0.017482,-0.000268,   8.496
    63.8,0.000007,-0.000228,-0.016896,-0.000268,   8.492
    64.0,-0.000001,-0.000228,-0.015963,-0.000268,   8.490
    64.2,-0.000001,-0.000223,-0.015532,-0.000268,   8.495
    64.4,-0.000001,-0.000220,-0.015225,-0.000268,   8.495
    64.6,-0.000001,-0.000220,-0.014996,-0.000268,   8.495
    64.8,-0.000001,-0.000223,-0.014806,-0.000268,   8.493
    65.0,-0.000001,-0.000219,-0.014681,-0.000268,   8.490
    65.2,-0.000001,-0.000224,-0.014612,-0.000268,   8.491
    65.4,-0.000001,-0.000223,-0.014822,-0.000268,   8.493
    65.6,-0.000001,-0.000226,-0.015214,-0.000268,   8.493
    65.8,-0.000001,-0.000226,-0.015811,-0.000268,   8.492
    66.0,-0.000001,-0.000226,-0.015694,-0.000268,   8.492
    66.2,-0.000001,-0.000229,-0.015335,-0.000268,   8.494
    66.4,-0.000001,-0.000227,-0.014753,-0.000268,   8.495
    66.6,-0.000001,-0.000227,-0.014648,-0.000268,   8.494
    66.8,-0.000001,-0.000227,-0.014653,-0.000268,   8.492
    67.0,-0.000001,-0.000223,-0.014774,-0.000281,   8.493
    67.2,-0.000001,-0.000225,-0.015069,-0.000305,   8.494
    67.4,0.000007,-0.000231,-0.015489,-0.000281,   8.493
    67.6,-0.000001,-0.000228,-0.016052,-0.000305,   8.494
    67.8,-0.000001,-0.000228,-0.016772,-0.000305,   8.490
    68.0,0.000004,-0.000237,-0.016611,-0.000281,   8.494
    68.2,-0.000001,-0.000238,-0.016173,-0.000268,   8.494
    68.4,0.000004,-0.000230,-0.015480,-0.000268,   8.496
    68.6,0.000008,-0.000234,-0.015177,-0.000281,   8.490
    68.8,0.000004,-0.000239,-0.014975,-0.000268,   8.494
    69.0,0.000008,-0.000228,-0.014830,-0.000268,   8.491
    69.2,0.000008,-0.000228,-0.014697,-0.000281,   8.491
    69.4,0.000004,-0.000230,-0.014645,-0.000268,   8.490
    69.6,0.000011,-0.000230,-0.014629,-0.000268,   8.490
    69.8,0.000011,-0.000227,-0.014524,-0.000281,   8.497
    70.0,0.000007,-0.000229,-0.014414,-0.000268,   8.489
    70.2,0.000014,-0.000226,-0.014297,-0.000281,   8.496
    70.4,0.000014,-0.000223,-0.014257,-0.000257,   8.495
    70.6,0.000007,-0.000223,-0.014269,-0.000281,   8.495
    70.8,0.000007,-0.000222,-0.014346,-0.000294,   8.494
    71.0,0.000007,-0.000223,-0.014273,-0.000257,   8.492
    71.2,-0.000001,-0.000226,-0.014156,-0.000281,   8.488
    71.4,-0.000001,-0.000226,-0.014054,-0.000281,   8.497
    71.6,0.000007,-0.000223,-0.014009,-0.000244,   8.491
    71.8,0.000007,-0.000223,-0.013977,-0.000268,   8.494
    72.0,-0.000001,-0.000223,-0.013977,-0.000268,   8.496
    72.2,0.000003,-0.000223,-0.013997,-0.000244,   8.496
    72.4,0.000007,-0.000225,-0.014029,-0.000268,   8.491
    72.6,0.000003,-0.000225,-0.014094,-0.000268,   8.492
    72.8,0.000010,-0.000225,-0.014107,-0.000244,   8.490
    73.0,0.000010,-0.000222,-0.014099,-0.000268,   8.494
    73.2,0.000006,-0.000221,-0.014139,-0.000268,   8.497
    73.4,0.000006,-0.000212,-0.014094,-0.000244,   8.493
    73.6,0.000010,-0.000210,-0.014029,-0.000268,   8.497
    73.8,0.000003,-0.000213,-0.013944,-0.000268,   8.491
    74.0,0.000003,-0.000219,-0.013944,-0.000281,   8.493
    74.2,0.000010,-0.000223,-0.013977,-0.000268,   8.498
    74.4,0.000003,-0.000223,-0.014074,-0.000268,   8.492
    74.6,0.000003,-0.000223,-0.014094,-0.000281,   8.492
    74.8,0.000010,-0.000220,-0.014074,-0.000268,   8.490
    75.0,0.000003,-0.000220,-0.014062,-0.000268,   8.492
    75.2,0.000010,-0.000217,-0.013985,-0.000244,   8.490
    75.4,0.000017,-0.000212,-0.013887,-0.000268,   8.490
    75.6,0.000010,-0.000212,-0.013749,-0.000268,   8.498
    75.8,0.000013,-0.000217,-0.013794,-0.000244,   8.496
    76.0,0.000013,-0.000222,-0.013924,-0.000268,   8.492
    76.2,0.000006,-0.000221,-0.014139,-0.000268,   8.492
    76.4,0.000012,-0.000220,-0.014520,-0.000244,   8.491
    76.6,0.000012,-0.000228,-0.015045,-0.000244,   8.497
    76.8,0.000015,-0.000223,-0.015682,-0.000268,   8.493
    77.0,0.000015,-0.000220,-0.016466,-0.000230,   8.492
    77.2,0.000015,-0.000223,-0.016382,-0.000230,   8.493
    77.4,0.000018,-0.000219,-0.016028,-0.000268,   8.496
    77.6,0.000015,-0.000214,-0.015412,-0.000230,   8.494
    77.8,0.000015,-0.000220,-0.015170,-0.000230,   8.496
    78.0,0.000018,-0.000218,-0.014992,-0.000268,   8.493
    78.2,0.000018,-0.000213,-0.014867,-0.000268,   8.492
    78.4,0.000018,-0.000213,-0.014685,-0.000230,   8.490
    78.6,0.000021,-0.000216,-0.014475,-0.000268,   8.494
    78.8,0.000021,-0.000210,-0.014305,-0.000268,   8.495
    79.0,0.000018,-0.000207,-0.014212,-0.000230,   8.497
    79.2,0.000021,-0.000210,-0.014212,-0.000268,   8.500
    79.4,0.000021,-0.000211,-0.014257,-0.000268,   8.492
    79.6,0.000021,-0.000211,-0.014237,-0.000230,   8.494
    79.8,0.000027,-0.000215,-0.014224,-0.000268,   8.497
    80.0,0.000027,-0.000222,-0.014237,-0.000268,   8.494
    80.2,0.000030,-0.000214,-0.014572,-0.000230,   8.494
    80.4,0.000037,-0.000211,-0.015077,-0.000268,   8.496
    80.6,0.000040,-0.000214,-0.015751,-0.000268,   8.494
    80.8,0.000043,-0.000211,-0.016547,-0.000230,   8.493
    81.0,0.000046,-0.000203,-0.017498,-0.000268,   8.493
    81.2,0.000052,-0.000210,-0.018582,-0.000268,   8.493
    81.4,0.000055,-0.000208,-0.018499,-0.000268,   8.499
    81.6,0.000058,-0.000201,-0.017887,-0.000268,   8.494
    81.8,0.000064,-0.000199,-0.016760,-0.000268,   8.497
    82.0,0.000072,-0.000191,-0.016306,-0.000268,   8.494
    82.2,0.000075,-0.000188,-0.015895,-0.000254,   8.488
    82.4,0.000071,-0.000183,-0.015537,-0.000254,   8.498
    82.6,0.000077,-0.000180,-0.015218,-0.000254,   8.494
    82.8,0.000087,-0.000175,-0.014935,-0.000241,   8.499
    83.0,0.000086,-0.000171,-0.014733,-0.000241,   8.495
    83.2,0.000086,-0.000161,-0.014551,-0.000254,   8.498
    83.4,0.000094,-0.000159,-0.014393,-0.000254,   8.496
    83.6,0.000089,-0.000159,-0.014316,-0.000241,   8.494
    83.8,0.000092,-0.000158,-0.014198,-0.000228,   8.495
    84.0,0.000100,-0.000150,-0.014081,-0.000228,   8.496
    84.2,0.000092,-0.000145,-0.013983,-0.000228,   8.498
    84.4,0.000095,-0.000141,-0.013983,-0.000228,   8.496
    84.6,0.000103,-0.000136,-0.014041,-0.000228,   8.495
    84.8,0.000098,-0.000137,-0.014183,-0.000214,   8.496
    85.0,0.000102,-0.000137,-0.014183,-0.000214,   8.500
    85.2,0.000109,-0.000138,-0.014130,-0.000214,   8.495
    85.4,0.000106,-0.000139,-0.014073,-0.000187,   8.499
    85.6,0.000107,-0.000131,-0.013955,-0.000252,   8.492
    85.8,0.000117,-0.000126,-0.013963,-0.000201,   8.497
    86.0,0.000113,-0.000124,-0.014008,-0.000225,   8.495
    86.2,0.000116,-0.000124,-0.014065,-0.000238,   8.494
    86.4,0.000119,-0.000118,-0.014085,-0.000201,   8.499
    86.6,0.000115,-0.000113,-0.014105,-0.000187,   8.495
    86.8,0.000118,-0.000114,-0.014110,-0.000201,   8.493
    87.0,0.000107,-0.000109,-0.014098,-0.000201,   8.499
    87.2,0.000100,-0.000109,-0.014065,-0.000187,   8.496
    87.4,0.000104,-0.000111,-0.014033,-0.000201,   8.499
    87.6,0.000101,-0.000108,-0.014421,-0.000201,   8.496
    87.8,0.000094,-0.000108,-0.015023,-0.000187,   8.495
    88.0,0.000101,-0.000106,-0.015822,-0.000201,   8.497
    88.2,0.000101,-0.000106,-0.015854,-0.000201,   8.495
    88.4,0.000090,-0.000109,-0.015617,-0.000201,   8.497
    88.6,0.000098,-0.000106,-0.015105,-0.000201,   8.494
    88.8,0.000095,-0.000106,-0.015073,-0.000214,   8.495
    89.0,0.000095,-0.000109,-0.015137,-0.000214,   8.491
    89.2,0.000087,-0.000109,-0.015315,-0.000201,   8.498
    89.4,0.000095,-0.000107,-0.015073,-0.000177,   8.494
    89.6,0.000092,-0.000115,-0.014693,-0.000214,   8.498
    89.8,0.000087,-0.000113,-0.014195,-0.000214,   8.494
    90.0,0.000092,-0.000113,-0.014029,-0.000190,   8.497
    90.2,0.000081,-0.000114,-0.013989,-0.000228,   8.496
    90.4,0.000077,-0.000117,-0.014094,-0.000228,   8.496
    90.6,0.000077,-0.000111,-0.014107,-0.000203,   8.496
    90.8,0.000081,-0.000108,-0.014139,-0.000241,   8.494
    91.0,0.000077,-0.000113,-0.014216,-0.000228,   8.497
    91.2,0.000077,-0.000112,-0.014204,-0.000203,   8.497
    91.4,0.000081,-0.000112,-0.014159,-0.000241,   8.495
    91.6,0.000077,-0.000107,-0.014074,-0.000228,   8.497
    91.8,0.000080,-0.000108,-0.014054,-0.000203,   8.496
    92.0,0.000087,-0.000109,-0.014054,-0.000241,   8.492
    92.2,0.000083,-0.000109,-0.014074,-0.000228,   8.496
    92.4,0.000090,-0.000106,-0.014220,-0.000203,   8.497
    92.6,0.000095,-0.000101,-0.014422,-0.000241,   8.496
    92.8,0.000090,-0.000102,-0.014717,-0.000228,   8.496
    93.0,0.000090,-0.000094,-0.014778,-0.000203,   8.497
    93.2,0.000090,-0.000090,-0.014710,-0.000241,   8.495
    93.4,0.000083,-0.000093,-0.014597,-0.000228,   8.495
    93.6,0.000083,-0.000090,-0.014661,-0.000203,   8.497
    93.8,0.000090,-0.000088,-0.014787,-0.000203,   8.494
    94.0,0.000083,-0.000088,-0.014956,-0.000241,   8.497
    94.2,0.000090,-0.000086,-0.015227,-0.000203,   8.496
    94.4,0.000095,-0.000083,-0.015129,-0.000217,   8.499
    94.6,0.000094,-0.000083,-0.014960,-0.000241,   8.496
    94.8,0.000104,-0.000078,-0.014693,-0.000203,   8.495
    95.0,0.000107,-0.000075,-0.014543,-0.000217,   8.497
    95.2,0.000103,-0.000078,-0.014438,-0.000254,   8.495
    95.4,0.000106,-0.000075,-0.014381,-0.000254,   8.494
    95.6,0.000103,-0.000073,-0.014344,-0.000217,   8.494
    95.8,0.000098,-0.000076,-0.014324,-0.000254,   8.495
    96.0,0.000102,-0.000071,-0.014324,-0.000254,   8.494
    96.2,0.000109,-0.000066,-0.014364,-0.000254,   8.498
    96.4,0.000105,-0.000064,-0.014417,-0.000268,   8.496
    96.6,0.000105,-0.000061,-0.014481,-0.000268,   8.499
    96.8,0.000112,-0.000058,-0.014457,-0.000268,   8.498
    97.0,0.000111,-0.000053,-0.014372,-0.000281,   8.495
    97.2,0.000111,-0.000054,-0.014282,-0.000281,   8.496
    97.4,0.000121,-0.000049,-0.014310,-0.000268,   8.493
    97.6,0.000124,-0.000039,-0.014395,-0.000268,   8.498
    97.8,0.000120,-0.000039,-0.014565,-0.000268,   8.499
    98.0,0.000120,-0.000036,-0.014606,-0.000268,   8.496
    98.2,0.000128,-0.000030,-0.014613,-0.000268,   8.496
    98.4,0.000123,-0.000021,-0.014621,-0.000268,   8.501
    98.6,0.000131,-0.000021,-0.014629,-0.000268,   8.498
    98.8,0.000134,-0.000019,-0.014637,-0.000268,   8.497
    99.0,0.000129,-0.000013,-0.014665,-0.000268,   8.494
    99.2,0.000129,-0.000006,-0.014693,-0.000268,   8.499
    99.4,0.000140,-0.000005,-0.014753,-0.000268,   8.497
    99.6,0.000136,0.000000,-0.014806,-0.000268,   8.496
    99.8,0.000136,0.000006,-0.014886,-0.000268,   8.500
   100.0,0.000146,0.000002,-0.015011,-0.000268,   8.499
   100.2,0.000142,0.000008,-0.015129,-0.000268,   8.497
   100.4,0.000148,0.000010,-0.015149,-0.000268,   8.499
   100.6,0.000159,0.000008,-0.015184,-0.000268,   8.498
   100.8,0.000157,0.000018,-0.015152,-0.000268,   8.497
   101.0,0.000160,0.000028,-0.015245,-0.000268,   8.499
   101.2,0.000165,0.000032,-0.015410,-0.000268,   8.500
   101.4,0.000160,0.000044,-0.015600,-0.000268,   8.500
   101.6,0.000163,0.000051,-0.015869,-0.000268,   8.499
   101.8,0.000174,0.000055,-0.016251,-0.000254,   8.502
   102.0,0.000170,0.000063,-0.016677,-0.000254,   8.499
   102.2,0.000173,0.000066,-0.016822,-0.000254,   8.499
   102.4,0.000180,0.000071,-0.016870,-0.000254,   8.494
   102.6,0.000179,0.000073,-0.016790,-0.000254,   8.500
   102.8,0.000185,0.000078,-0.016621,-0.000279,   8.501
   103.0,0.000196,0.000083,-0.016596,-0.000254,   8.503
   103.2,0.000194,0.000086,-0.016612,-0.000279,   8.502
   103.4,0.000194,0.000099,-0.016648,-0.000279,   8.504
   103.6,0.000205,0.000109,-0.016631,-0.000254,   8.504
   103.8,0.000201,0.000110,-0.016607,-0.000254,   8.502
   104.0,0.000204,0.000120,-0.016610,-0.000241,   8.502
   104.2,0.000211,0.000127,-0.016621,-0.000241,   8.507
   104.4,0.000207,0.000134,-0.016617,-0.000241,   8.504
   104.6,0.000213,0.000139,-0.016673,-0.000228,   8.507
   104.8,0.000227,0.000144,-0.016801,-0.000241,   8.506
   105.0,0.000225,0.000151,-0.016925,-0.000241,   8.510
   105.2,0.000228,0.000153,-0.017134,-0.000228,   8.508
   105.4,0.000239,0.000158,-0.017242,-0.000241,   8.509
   105.6,0.000238,0.000165,-0.017298,-0.000241,   8.509
   105.8,0.000238,0.000167,-0.017353,-0.000228,   8.510
   106.0,0.000245,0.000176,-0.017461,-0.000241,   8.512
   106.2,0.000241,0.000184,-0.017581,-0.000254,   8.512
   106.4,0.000244,0.000188,-0.017733,-0.000254,   8.512
   106.6,0.000247,0.000202,-0.017829,-0.000230,   8.513
   106.8,0.000250,0.000207,-0.017904,-0.000281,   8.510
   107.0,0.000249,0.000211,-0.017972,-0.000281,   8.512
   107.2,0.000259,0.000219,-0.018164,-0.000230,   8.516
   107.4,0.000263,0.000226,-0.018380,-0.000254,   8.518
   107.6,0.000269,0.000234,-0.018672,-0.000254,   8.519
   107.8,0.000269,0.000243,-0.018792,-0.000217,   8.521
   108.0,0.000272,0.000250,-0.018887,-0.000241,   8.520
   108.2,0.000275,0.000255,-0.018938,-0.000241,   8.524
   108.4,0.000275,0.000257,-0.019078,-0.000254,   8.520
   108.6,0.000278,0.000270,-0.019281,-0.000254,   8.523
   108.8,0.000281,0.000277,-0.019544,-0.000254,   8.527
   109.0,0.000287,0.000280,-0.019704,-0.000254,   8.527
   109.2,0.000290,0.000292,-0.019851,-0.000254,   8.525
   109.4,0.000297,0.000302,-0.019970,-0.000241,   8.531
   109.6,0.000303,0.000304,-0.020149,-0.000241,   8.534
   109.8,0.000310,0.000311,-0.020348,-0.000241,   8.531
   110.0,0.000312,0.000320,-0.020550,-0.000228,   8.535
   110.2,0.000315,0.000327,-0.020761,-0.000241,   8.537
   110.4,0.000329,0.000331,-0.020979,-0.000241,   8.536
   110.6,0.000328,0.000341,-0.021241,-0.000228,   8.540
   110.8,0.000331,0.000351,-0.021459,-0.000241,   8.537
   111.0,0.000341,0.000355,-0.021669,-0.000241,   8.538
   111.2,0.000340,0.000356,-0.021899,-0.000228,   8.541
   111.4,0.000343,0.000371,-0.022069,-0.000241,   8.545
   111.6,0.000357,0.000384,-0.022247,-0.000241,   8.549
   111.8,0.000360,0.000389,-0.022397,-0.000241,   8.549
   112.0,0.000368,0.000397,-0.022555,-0.000279,   8.553
   112.2,0.000381,0.000406,-0.022690,-0.000241,   8.553
   112.4,0.000377,0.000416,-0.022844,-0.000265,   8.557
   112.6,0.000386,0.000420,-0.022985,-0.000279,   8.559
   112.8,0.000391,0.000427,-0.023171,-0.000241,   8.556
   113.0,0.000390,0.000429,-0.023455,-0.000241,   8.565
   113.2,0.000396,0.000437,-0.023735,-0.000228,   8.566
   113.4,0.000403,0.000448,-0.023983,-0.000228,   8.568
   113.6,0.000404,0.000449,-0.024259,-0.000228,   8.573
   113.8,0.000411,0.000454,-0.024519,-0.000228,   8.577
   114.0,0.000421,0.000461,-0.024731,-0.000228,   8.579
   114.2,0.000420,0.000465,-0.024904,-0.000228,   8.582
   114.4,0.000426,0.000477,-0.025065,-0.000228,   8.588
   114.6,0.000429,0.000492,-0.025277,-0.000228,   8.593
   114.8,0.000431,0.000496,-0.025501,-0.000228,   8.594
   115.0,0.000445,0.000505,-0.025768,-0.000214,   8.598
   115.2,0.000454,0.000516,-0.026094,-0.000214,   8.602
   115.4,0.000459,0.000525,-0.026462,-0.000214,   8.603
   115.6,0.000473,0.000529,-0.026861,-0.000201,   8.608
   115.8,0.000479,0.000536,-0.027260,-0.000214,   8.614
   116.0,0.000485,0.000551,-0.027729,-0.000214,   8.616
   116.2,0.000484,0.000556,-0.028189,-0.000201,   8.618
   116.4,0.000497,0.000566,-0.028439,-0.000214,   8.623
   116.6,0.000500,0.000582,-0.028626,-0.000201,   8.629
   116.8,0.000510,0.000589,-0.028720,-0.000201,   8.634
   117.0,0.000519,0.000593,-0.028989,-0.000201,   8.638
   117.2,0.000528,0.000599,-0.029273,-0.000187,   8.640
   117.4,0.000530,0.000609,-0.029615,-0.000201,   8.646
   117.6,0.000547,0.000618,-0.029922,-0.000163,   8.654
   117.8,0.000553,0.000625,-0.030175,-0.000187,   8.655
   118.0,0.000555,0.000631,-0.030435,-0.000187,   8.660
   118.2,0.000572,0.000646,-0.030715,-0.000174,   8.664
   118.4,0.000578,0.000661,-0.030994,-0.000161,   8.675
   118.6,0.000577,0.000666,-0.031315,-0.000161,   8.676
   118.8,0.000593,0.000679,-0.031556,-0.000161,   8.679
   119.0,0.000596,0.000693,-0.031784,-0.000147,   8.683
   119.2,0.000598,0.000700,-0.032005,-0.000147,   8.693
   119.4,0.000609,0.000705,-0.032387,-0.000147,   8.696
   119.6,0.000615,0.000712,-0.032869,-0.000134,   8.698
   119.8,0.000617,0.000719,-0.033451,-0.000134,   8.707
   120.0,0.000631,0.000729,-0.033663,-0.000134,   8.716
   120.2,0.000637,0.000742,-0.033755,-0.000120,   8.718
   120.4,0.000636,0.000750,-0.033748,-0.000107,   8.725
   120.6,0.000646,0.000755,-0.034182,-0.000158,   8.730
   120.8,0.000649,0.000763,-0.034754,-0.000120,   8.738
   121.0,0.000645,0.000774,-0.035516,-0.000145,   8.742
   121.2,0.000652,0.000777,-0.036406,-0.000145,   8.748
   121.4,0.000655,0.000781,-0.036418,-0.000120,   8.752
   121.6,0.000648,0.000790,-0.036155,-0.000120,   8.761
   121.8,0.000655,0.000796,-0.035613,-0.000107,   8.765
   122.0,0.000655,0.000806,-0.035438,-0.000107,   8.774
   122.2,0.000648,0.000813,-0.035308,-0.000107,   8.776
   122.4,0.000655,0.000815,-0.035266,-0.000094,   8.784
   122.6,0.000652,0.000814,-0.035155,-0.000094,   8.791
   122.8,0.000648,0.000816,-0.035044,-0.000094,   8.794
   123.0,0.000652,0.000813,-0.034956,-0.000080,   8.805
   123.2,0.000649,0.000815,-0.034906,-0.000094,   8.811
   123.4,0.000645,0.000820,-0.034872,-0.000094,   8.817
   123.6,0.000642,0.000820,-0.034875,-0.000080,   8.824
   123.8,0.000639,0.000818,-0.034798,-0.000094,   8.835
   124.0,0.000634,0.000818,-0.034721,-0.000094,   8.841
   124.2,0.000631,0.000818,-0.034617,-0.000080,   8.844
   124.4,0.000628,0.000821,-0.034441,-0.000094,   8.853
   124.6,0.000628,0.000823,-0.034203,-0.000094,   8.858
   124.8,0.000622,0.000818,-0.033938,-0.000094,   8.868
   125.0,0.000616,0.000815,-0.034233,-0.000107,   8.876
   125.2,0.000613,0.000815,-0.034807,-0.000107,   8.883
   125.4,0.000613,0.000813,-0.035633,-0.000107,   8.889
   125.6,0.000606,0.000806,-0.035411,-0.000120,   8.897
   125.8,0.000603,0.000806,-0.034802,-0.000120,   8.908
   126.0,0.000600,0.000800,-0.033812,-0.000107,   8.916
   126.2,0.000597,0.000796,-0.033342,-0.000120,   8.921
   126.4,0.000597,0.000791,-0.032934,-0.000120,   8.932
   126.6,0.000594,0.000786,-0.032637,-0.000120,   8.939
   126.8,0.000591,0.000782,-0.032197,-0.000134,   8.946
   127.0,0.000592,0.000777,-0.031717,-0.000147,   8.958
   127.2,0.000578,0.000775,-0.031226,-0.000147,   8.959
   127.4,0.000580,0.000772,-0.030815,-0.000147,   8.967
   127.6,0.000585,0.000770,-0.030419,-0.000161,   8.970
   127.8,0.000578,0.000768,-0.030062,-0.000161,   8.982
   128.0,0.000578,0.000763,-0.029681,-0.000161,   8.996
   128.2,0.000575,0.000760,-0.029304,-0.000147,   9.003
   128.4,0.000564,0.000756,-0.028965,-0.000147,   9.010
   128.6,0.000572,0.000746,-0.028564,-0.000161,   9.018
   128.8,0.000572,0.000744,-0.028166,-0.000147,   9.022
   129.0,0.000561,0.000741,-0.027749,-0.000147,   9.030
   129.2,0.000569,0.000736,-0.027350,-0.000161,   9.038
   129.4,0.000569,0.000734,-0.026983,-0.000147,   9.042
   129.6,0.000561,0.000732,-0.026607,-0.000147,   9.053
   129.8,0.000567,0.000724,-0.026266,-0.000161,   9.058
   130.0,0.000562,0.000722,-0.025933,-0.000161,   9.068
   130.2,0.000551,0.000714,-0.025611,-0.000161,   9.074
   130.4,0.000551,0.000712,-0.025309,-0.000198,   9.082
   130.6,0.000544,0.000707,-0.024846,-0.000174,   9.086
   130.8,0.000533,0.000702,-0.024311,-0.000212,   9.094
   131.0,0.000538,0.000698,-0.023704,-0.000212,   9.101
   131.2,0.000535,0.000691,-0.023168,-0.000187,   9.107
   131.4,0.000527,0.000686,-0.022650,-0.000174,   9.113
   131.6,0.000524,0.000682,-0.022156,-0.000187,   9.120
   131.8,0.000515,0.000680,-0.021625,-0.000201,   9.125
   132.0,0.000504,0.000669,-0.021046,-0.000201,   9.133
   132.2,0.000504,0.000664,-0.020475,-0.000214,   9.135
   132.4,0.000508,0.000662,-0.019974,-0.000190,   9.138
   132.6,0.000498,0.000657,-0.019476,-0.000228,   9.148
   132.8,0.000492,0.000644,-0.018998,-0.000228,   9.150
   133.0,0.000489,0.000640,-0.018592,-0.000190,   9.155
   133.2,0.000489,0.000633,-0.018221,-0.000228,   9.159
   133.4,0.000486,0.000623,-0.017910,-0.000228,   9.165
   133.6,0.000487,0.000622,-0.017466,-0.000190,   9.168
   133.8,0.000476,0.000623,-0.016934,-0.000228,   9.174
   134.0,0.000473,0.000614,-0.016344,-0.000228,   9.178
   134.2,0.000474,0.000609,-0.016676,-0.000190,   9.181
   134.4,0.000471,0.000605,-0.017420,-0.000228,   9.183
   134.6,0.000461,0.000598,-0.018599,-0.000228,   9.186
   134.8,0.000458,0.000585,-0.018264,-0.000190,   9.188
   135.0,0.000459,0.000577,-0.017429,-0.000228,   9.192
   135.2,0.000448,0.000564,-0.016057,-0.000241,   9.193
   135.4,0.000450,0.000561,-0.015341,-0.000217,   9.194
   135.6,0.000443,0.000556,-0.014697,-0.000254,   9.199
   135.8,0.000433,0.000547,-0.014105,-0.000254,   9.200
   136.0,0.000430,0.000540,-0.013479,-0.000217,   9.199
   136.2,0.000431,0.000533,-0.012880,-0.000268,   9.205
   136.4,0.000420,0.000526,-0.012308,-0.000268,   9.203
   136.6,0.000417,0.000519,-0.011813,-0.000230,   9.204
   136.8,0.000419,0.000512,-0.011383,-0.000281,   9.206
   137.0,0.000408,0.000504,-0.011046,-0.000281,   9.198
   137.2,0.000402,0.000499,-0.010696,-0.000230,   9.204
   137.4,0.000399,0.000492,-0.010411,-0.000268,   9.202
   137.6,0.000396,0.000482,-0.010160,-0.000268,   9.201
   137.8,0.000393,0.000481,-0.009883,-0.000230,   9.200
   138.0,0.000386,0.000474,-0.009659,-0.000268,   9.196
   138.2,0.000385,0.000466,-0.009427,-0.000268,   9.195
   138.4,0.000380,0.000461,-0.009256,-0.000244,   9.192
   138.6,0.000383,0.000449,-0.009126,-0.000244,   9.191
   138.8,0.000373,0.000444,-0.009016,-0.000281,   9.192
   139.0,0.000368,0.000429,-0.008980,-0.000268,   9.186
   139.2,0.000368,0.000416,-0.008805,-0.000281,   9.185
   139.4,0.000361,0.000417,-0.008609,-0.000305,   9.182
   139.6,0.000361,0.000407,-0.008392,-0.000319,   9.176
   139.8,0.000355,0.000398,-0.008203,-0.000294,   9.177
   140.0,0.000344,0.000394,-0.008015,-0.000281,   9.166
   140.2,0.000341,0.000387,-0.007859,-0.000294,   9.164
   140.4,0.000335,0.000380,-0.007757,-0.000294,   9.164
   140.6,0.000328,0.000370,-0.007708,-0.000281,   9.159
   140.8,0.000321,0.000368,-0.007705,-0.000294,   9.150
   141.0,0.000329,0.000362,-0.007644,-0.000294,   9.146
   141.2,0.000321,0.000349,-0.007554,-0.000281,   9.141
   141.4,0.000318,0.000345,-0.007500,-0.000294,   9.134
   141.6,0.000323,0.000333,-0.007422,-0.000294,   9.131
   141.8,0.000312,0.000324,-0.007286,-0.000281,   9.126
   142.0,0.000309,0.000317,-0.007166,-0.000294,   9.121
   142.2,0.000313,0.000313,-0.007087,-0.000308,   9.115
   142.4,0.000303,0.000309,-0.007034,-0.000294,   9.106
   142.6,0.000300,0.000304,-0.006980,-0.000294,   9.101
   142.8,0.000304,0.000304,-0.007001,-0.000308,   9.092
   143.0,0.000304,0.000302,-0.007087,-0.000294,   9.087
   143.2,0.000293,0.000289,-0.007207,-0.000308,   9.082
   143.4,0.000293,0.000284,-0.007582,-0.000321,   9.076
   143.6,0.000295,0.000277,-0.008097,-0.000308,   9.070
   143.8,0.000284,0.000273,-0.008791,-0.000321,   9.061
   144.0,0.000289,0.000269,-0.009098,-0.000321,   9.046
   144.2,0.000282,0.000263,-0.009286,-0.000308,   9.041
   144.4,0.000275,0.000256,-0.009373,-0.000321,   9.036
   144.6,0.000272,0.000250,-0.009347,-0.000321,   9.027
   144.8,0.000276,0.000243,-0.009195,-0.000308,   9.020
   145.0,0.000269,0.000244,-0.008957,-0.000321,   9.010
   145.2,0.000269,0.000231,-0.008846,-0.000321,   9.006
   145.4,0.000263,0.000223,-0.008755,-0.000308,   8.997
   145.6,0.000263,0.000223,-0.008704,-0.000321,   8.984
   145.8,0.000263,0.000215,-0.008695,-0.000321,   8.981
   146.0,0.000264,0.000207,-0.008690,-0.000321,   8.969
   146.2,0.000253,0.000202,-0.008739,-0.000321,   8.966
   146.4,0.000253,0.000195,-0.008750,-0.000335,   8.956
   146.6,0.000255,0.000187,-0.008745,-0.000335,   8.950
   146.8,0.000247,0.000177,-0.008740,-0.000321,   8.944
   147.0,0.000244,0.000175,-0.008801,-0.000335,   8.930
   147.2,0.000248,0.000172,-0.008911,-0.000335,   8.924
   147.4,0.000241,0.000164,-0.009010,-0.000335,   8.913
   147.6,0.000241,0.000160,-0.009198,-0.000359,   8.906
   147.8,0.000242,0.000152,-0.009320,-0.000335,   8.899
   148.0,0.000235,0.000149,-0.009435,-0.000372,   8.888
   148.2,0.000235,0.000145,-0.009557,-0.000372,   8.882
   148.4,0.000236,0.000140,-0.009692,-0.000335,   8.871
   148.6,0.000228,0.000135,-0.009839,-0.000335,   8.859
   148.8,0.000232,0.000129,-0.009994,-0.000335,   8.852
   149.0,0.000239,0.000118,-0.010083,-0.000310,   8.843
   149.2,0.000232,0.000116,-0.010172,-0.000348,   8.837
   149.4,0.000232,0.000114,-0.010200,-0.000348,   8.826
   149.6,0.000239,0.000109,-0.010502,-0.000310,   8.821
   149.8,0.000232,0.000109,-0.010942,-0.000348,   8.810
   150.0,0.000228,0.000104,-0.011501,-0.000348,   8.802
   150.2,0.000233,0.000107,-0.011821,-0.000324,   8.796
   150.4,0.000225,0.000102,-0.012094,-0.000361,   8.786
   150.6,0.000236,0.000093,-0.012305,-0.000348,   8.782
   150.8,0.000246,0.000092,-0.012321,-0.000310,   8.770
   151.0,0.000239,0.000087,-0.012243,-0.000348,   8.756
   151.2,0.000242,0.000082,-0.012019,-0.000310,   8.755
   151.4,0.000242,0.000092,-0.011896,-0.000273,   8.742
   151.6,0.000238,0.000092,-0.011794,-0.000310,   8.739
   151.8,0.000244,0.000084,-0.011671,-0.000273,   8.729
   152.0,0.000255,0.000087,-0.011886,-0.000273,   8.726
   152.2,0.000258,0.000093,-0.012284,-0.000310,   8.718
   152.4,0.000253,0.000090,-0.012853,-0.000273,   8.710
   152.6,0.000253,0.000091,-0.013469,-0.000273,   8.705
   152.8,0.000258,0.000096,-0.014173,-0.000297,   8.699
   153.0,0.000253,0.000099,-0.014989,-0.000260,   8.688
   153.2,0.000261,0.000091,-0.014972,-0.000246,   8.688
   153.4,0.000264,0.000088,-0.014600,-0.000270,   8.678
   153.6,0.000263,0.000087,-0.013839,-0.000270,   8.672
   153.8,0.000266,0.000092,-0.013559,-0.000270,   8.671
   154.0,0.000273,0.000086,-0.013364,-0.000294,   8.662
   154.2,0.000269,0.000081,-0.013222,-0.000294,   8.656
   154.4,0.000269,0.000089,-0.013119,-0.000257,   8.653
   154.6,0.000279,0.000094,-0.013067,-0.000281,   8.647
   154.8,0.000275,0.000088,-0.013054,-0.000281,   8.642
   155.0,0.000272,0.000090,-0.013062,-0.000244,   8.640
   155.2,0.000272,0.000090,-0.013135,-0.000268,   8.632
   155.4,0.000275,0.000088,-0.013220,-0.000268,   8.627
   155.6,0.000272,0.000092,-0.013366,-0.000230,   8.621
   155.8,0.000272,0.000089,-0.013593,-0.000268,   8.620
   156.0,0.000275,0.000084,-0.013864,-0.000268,   8.612
   156.2,0.000272,0.000086,-0.013916,-0.000230,   8.613
   156.4,0.000269,0.000086,-0.013924,-0.000254,   8.608
   156.6,0.000269,0.000078,-0.013864,-0.000254,   8.604
   156.8,0.000266,0.000076,-0.013811,-0.000217,   8.600
   157.0,0.000267,0.000076,-0.013746,-0.000217,   8.603
   157.2,0.000256,0.000071,-0.013689,-0.000254,   8.597
   157.4,0.000253,0.000072,-0.013604,-0.000203,   8.595
   157.6,0.000258,0.000070,-0.013559,-0.000217,   8.589
   157.8,0.000247,0.000065,-0.013526,-0.000241,   8.584
   158.0,0.000244,0.000058,-0.013526,-0.000203,   8.584
   158.2,0.000248,0.000053,-0.013534,-0.000217,   8.580
   158.4,0.000244,0.000051,-0.013526,-0.000254,   8.576
   158.6,0.000241,0.000047,-0.013559,-0.000254,   8.571
   158.8,0.000245,0.000045,-0.013514,-0.000217,   8.569
   159.0,0.000241,0.000042,-0.013437,-0.000254,   8.566
   159.2,0.000238,0.000038,-0.013319,-0.000254,   8.566
   159.4,0.000245,0.000035,-0.013339,-0.000217,   8.564
   159.6,0.000238,0.000038,-0.013416,-0.000254,   8.554
   159.8,0.000235,0.000035,-0.013579,-0.000254,   8.558
   160.0,0.000236,0.000035,-0.013599,-0.000217,   8.554
   160.2,0.000225,0.000030,-0.013591,-0.000254,   8.557
   160.4,0.000225,0.000033,-0.013579,-0.000254,   8.555
   160.6,0.000227,0.000028,-0.013494,-0.000217,   8.550
   160.8,0.000219,0.000026,-0.013416,-0.000254,   8.549
   161.0,0.000216,0.000023,-0.013299,-0.000254,   8.544
   161.2,0.000224,0.000021,-0.013193,-0.000217,   8.542
   161.4,0.000219,0.000018,-0.013148,-0.000254,   8.543
   161.6,0.000216,0.000015,-0.013095,-0.000254,   8.540
   161.8,0.000220,0.000006,-0.013108,-0.000217,   8.535
   162.0,0.000220,0.000003,-0.013173,-0.000254,   8.531
   162.2,0.000210,0.000003,-0.013303,-0.000254,   8.536
   162.4,0.000210,0.000005,-0.013534,-0.000217,   8.534
   162.6,0.000214,0.000001,-0.013838,-0.000254,   8.533
   162.8,0.000210,-0.000001,-0.014211,-0.000254,   8.530
   163.0,0.000214,0.000000,-0.014171,-0.000217,   8.528
   163.2,0.000214,-0.000002,-0.014008,-0.000254,   8.525
   163.4,0.000207,-0.000007,-0.013692,-0.000254,   8.526
   163.6,0.000207,-0.000004,-0.013554,-0.000217,   8.525
   163.8,0.000211,-0.000001,-0.013457,-0.000268,   8.522
   164.0,0.000204,-0.000010,-0.013404,-0.000268,   8.521
   164.2,0.000204,-0.000008,-0.013351,-0.000230,   8.524
   164.4,0.000208,-0.000005,-0.013319,-0.000281,   8.521
   164.6,0.000198,-0.000015,-0.013291,-0.000281,   8.517
   164.8,0.000198,-0.000015,-0.013409,-0.000230,   8.517
   165.0,0.000202,-0.000020,-0.013619,-0.000268,   8.520
   165.2,0.000191,-0.000023,-0.013875,-0.000268,   8.512
   165.4,0.000199,-0.000027,-0.013830,-0.000230,   8.517
   165.6,0.000209,-0.000032,-0.013660,-0.000268,   8.516
   165.8,0.000202,-0.000029,-0.013384,-0.000268,   8.514
   166.0,0.000209,-0.000028,-0.013364,-0.000230,   8.509
   166.2,0.000206,-0.000030,-0.013429,-0.000268,   8.511
   166.4,0.000202,-0.000035,-0.013604,-0.000268,   8.509
   166.6,0.000206,-0.000030,-0.013636,-0.000230,   8.510
   166.8,0.000203,-0.000027,-0.013596,-0.000230,   8.508
   167.0,0.000199,-0.000032,-0.013584,-0.000268,   8.508
   167.2,0.000193,-0.000031,-0.013503,-0.000230,   8.509
   167.4,0.000189,-0.000031,-0.013523,-0.000230,   8.509
   167.6,0.000182,-0.000036,-0.013556,-0.000268,   8.504
   167.8,0.000186,-0.000040,-0.013580,-0.000230,   8.502
   168.0,0.000188,-0.000043,-0.013507,-0.000230,   8.503
   168.2,0.000180,-0.000051,-0.013410,-0.000268,   8.503
   168.4,0.000191,-0.000042,-0.013267,-0.000268,   8.501
   168.6,0.000191,-0.000042,-0.013202,-0.000230,   8.505
   168.8,0.000183,-0.000047,-0.013182,-0.000268,   8.500
   169.0,0.000191,-0.000047,-0.013174,-0.000268,   8.497
   169.2,0.000191,-0.000047,-0.013122,-0.000230,   8.500
   169.4,0.000183,-0.000045,-0.013097,-0.000268,   8.499
   169.6,0.000191,-0.000047,-0.013056,-0.000268,   8.497
   169.8,0.000188,-0.000042,-0.013069,-0.000244,   8.500
   170.0,0.000180,-0.000040,-0.013122,-0.000268,   8.499
   170.2,0.000191,-0.000051,-0.013207,-0.000268,   8.500
   170.4,0.000191,-0.000051,-0.013260,-0.000244,   8.497
   170.6,0.000183,-0.000048,-0.013304,-0.000268,   8.498
   170.8,0.000191,-0.000056,-0.013357,-0.000268,   8.497
   171.0,0.000191,-0.000055,-0.013365,-0.000230,   8.496
   171.2,0.000191,-0.000053,-0.013345,-0.000268,   8.497
   171.4,0.000183,-0.000058,-0.013292,-0.000268,   8.497
   171.6,0.000188,-0.000055,-0.013405,-0.000230,   8.497
   171.8,0.000185,-0.000055,-0.013556,-0.000268,   8.492
   172.0,0.000180,-0.000061,-0.013779,-0.000268,   8.496
   172.2,0.000181,-0.000060,-0.013957,-0.000230,   8.498
   172.4,0.000171,-0.000060,-0.014127,-0.000268,   8.497
   172.6,0.000163,-0.000066,-0.014329,-0.000268,   8.495
   172.8,0.000160,-0.000062,-0.014277,-0.000230,   8.496
   173.0,0.000168,-0.000062,-0.014139,-0.000268,   8.494
   173.2,0.000163,-0.000070,-0.013876,-0.000268,   8.491
   173.4,0.000160,-0.000067,-0.013706,-0.000230,   8.495
   173.6,0.000168,-0.000070,-0.013568,-0.000268,   8.493
   173.8,0.000163,-0.000075,-0.013438,-0.000268,   8.494
   174.0,0.000157,-0.000072,-0.013405,-0.000230,   8.493
   174.2,0.000162,-0.000075,-0.013438,-0.000268,   8.489
   174.4,0.000157,-0.000075,-0.013535,-0.000268,   8.492
   174.6,0.000154,-0.000073,-0.013450,-0.000230,   8.491
   174.8,0.000162,-0.000076,-0.013348,-0.000268,   8.491
   175.0,0.000154,-0.000070,-0.013157,-0.000268,   8.490
   175.2,0.000151,-0.000073,-0.013060,-0.000230,   8.490
   175.4,0.000152,-0.000075,-0.012994,-0.000268,   8.491
   175.6,0.000145,-0.000080,-0.012962,-0.000230,   8.493
   175.8,0.000155,-0.000079,-0.012901,-0.000193,   8.491
   176.0,0.000160,-0.000085,-0.012869,-0.000193,   8.496
   176.2,0.000149,-0.000093,-0.012841,-0.000230,   8.489
   176.4,0.000157,-0.000090,-0.012853,-0.000230,   8.490
   176.6,0.000154,-0.000093,-0.012931,-0.000230,   8.493
   176.8,0.000143,-0.000096,-0.013081,-0.000268,   8.490
   177.0,0.000150,-0.000090,-0.013284,-0.000230,   8.490
   177.2,0.000150,-0.000096,-0.013332,-0.000230,   8.492
   177.4,0.000146,-0.000095,-0.013320,-0.000268,   8.490
   177.6,0.000150,-0.000094,-0.013255,-0.000268,   8.493
   177.8,0.000147,-0.000094,-0.013243,-0.000230,   8.491
   178.0,0.000143,-0.000091,-0.013283,-0.000268,   8.492
   178.2,0.000144,-0.000094,-0.013316,-0.000268,   8.495
   178.4,0.000141,-0.000091,-0.013328,-0.000230,   8.493
   178.6,0.000134,-0.000096,-0.013361,-0.000268,   8.492
   178.8,0.000141,-0.000101,-0.013405,-0.000268,   8.496
   179.0,0.000138,-0.000097,-0.013438,-0.000230,   8.490
   179.2,0.000131,-0.000097,-0.013523,-0.000268,   8.490
   179.4,0.000141,-0.000100,-0.013608,-0.000268,   8.489
   179.6,0.000138,-0.000102,-0.013576,-0.000230,   8.492
   179.8,0.000138,-0.000105,-0.013531,-0.000268,   8.492
   180.0,0.000131,-0.000099,-0.013433,-0.000268,   8.492
   180.2,0.000138,-0.000098,-0.013401,-0.000230,   8.492
   180.4,0.000135,-0.000096,-0.013393,-0.000268,   8.495
   180.6,0.000135,-0.000102,-0.013393,-0.000268,   8.494
   180.8,0.000135,-0.000099,-0.013348,-0.000230,   8.492
   181.0,0.000135,-0.000099,-0.013283,-0.000268,   8.488
   181.2,0.000128,-0.000105,-0.013218,-0.000268,   8.490
   181.4,0.000135,-0.000102,-0.013238,-0.000230,   8.490
   181.6,0.000135,-0.000107,-0.013291,-0.000268,   8.490
   181.8,0.000128,-0.000108,-0.013421,-0.000268,   8.487
   182.0,0.000135,-0.000109,-0.013474,-0.000230,   8.488
   182.2,0.000135,-0.000112,-0.013559,-0.000268,   8.490
   182.4,0.000128,-0.000106,-0.013624,-0.000268,   8.489
   182.6,0.000132,-0.000111,-0.013644,-0.000230,   8.492
   182.8,0.000129,-0.000113,-0.013664,-0.000268,   8.490
   183.0,0.000121,-0.000113,-0.013657,-0.000268,   8.485
   183.2,0.000129,-0.000114,-0.013591,-0.000230,   8.485
   183.4,0.000129,-0.000114,-0.013482,-0.000268,   8.488
   183.6,0.000118,-0.000117,-0.013351,-0.000268,   8.491
   183.8,0.000126,-0.000115,-0.013307,-0.000230,   8.489
   184.0,0.000123,-0.000113,-0.013274,-0.000230,   8.489
   184.2,0.000115,-0.000118,-0.013254,-0.000268,   8.488
   184.4,0.000115,-0.000115,-0.013294,-0.000230,   8.488
   184.6,0.000115,-0.000118,-0.013367,-0.000230,   8.485
   184.8,0.000111,-0.000120,-0.013497,-0.000268,   8.490
   185.0,0.000111,-0.000123,-0.013632,-0.000230,   8.490
   185.2,0.000115,-0.000123,-0.013599,-0.000230,   8.485
   185.4,0.000111,-0.000122,-0.013530,-0.000268,   8.489
   185.6,0.000108,-0.000124,-0.013379,-0.000268,   8.484
   185.8,0.000112,-0.000121,-0.013379,-0.000230,   8.485
   186.0,0.000108,-0.000118,-0.013432,-0.000268,   8.489
   186.2,0.000105,-0.000119,-0.013550,-0.000268,   8.489
   186.4,0.000109,-0.000114,-0.013517,-0.000230,   8.488
   186.6,0.000105,-0.000119,-0.013432,-0.000268,   8.485
   186.8,0.000105,-0.000119,-0.013342,-0.000268,   8.485
   187.0,0.000109,-0.000119,-0.013350,-0.000230,   8.485
   187.2,0.000105,-0.000125,-0.013383,-0.000268,   8.486
   187.4,0.000102,-0.000125,-0.013440,-0.000268,   8.487
   187.6,0.000106,-0.000125,-0.013428,-0.000230,   8.486
   187.8,0.000102,-0.000125,-0.013375,-0.000254,   8.489
   188.0,0.000098,-0.000126,-0.013302,-0.000254,   8.485
   188.2,0.000106,-0.000124,-0.013314,-0.000217,   8.488
   188.4,0.000106,-0.000121,-0.013392,-0.000241,   8.486
   188.6,0.000098,-0.000121,-0.013530,-0.000241,   8.486
   188.8,0.000098,-0.000126,-0.013741,-0.000217,   8.487
   189.0,0.000103,-0.000129,-0.014024,-0.000254,   8.489
   189.2,0.000095,-0.000129,-0.014372,-0.000254,   8.492
   189.4,0.000097,-0.000129,-0.014432,-0.000217,   8.490
   189.6,0.000097,-0.000129,-0.014347,-0.000254,   8.491
   189.8,0.000089,-0.000134,-0.014149,-0.000254,   8.489
   190.0,0.000092,-0.000132,-0.014064,-0.000217,   8.489
   190.2,0.000097,-0.000132,-0.013971,-0.000254,   8.487
   190.4,0.000089,-0.000132,-0.013906,-0.000254,   8.487
   190.6,0.000097,-0.000131,-0.013894,-0.000254,   8.485
   190.8,0.000101,-0.000134,-0.013894,-0.000254,   8.488
   191.0,0.000094,-0.000135,-0.013906,-0.000254,   8.493
   191.2,0.000094,-0.000136,-0.013861,-0.000254,   8.492
   191.4,0.000094,-0.000133,-0.013796,-0.000254,   8.487
   191.6,0.000086,-0.000136,-0.013739,-0.000254,   8.487
   191.8,0.000089,-0.000132,-0.013739,-0.000254,   8.486
   192.0,0.000097,-0.000132,-0.013784,-0.000254,   8.485
   192.2,0.000089,-0.000137,-0.013902,-0.000254,   8.486
   192.4,0.000100,-0.000132,-0.013902,-0.000254,   8.489
   192.6,0.000104,-0.000133,-0.013897,-0.000254,   8.486
   192.8,0.000097,-0.000135,-0.013804,-0.000254,   8.489
   193.0,0.000107,-0.000134,-0.013739,-0.000279,   8.488
   193.2,0.000104,-0.000133,-0.013759,-0.000292,   8.486
   193.4,0.000097,-0.000132,-0.013804,-0.000316,   8.487
   193.6,0.000104,-0.000127,-0.013889,-0.000279,   8.484
   193.8,0.000101,-0.000130,-0.013889,-0.000292,   8.491
   194.0,0.000094,-0.000130,-0.013837,-0.000254,   8.489
   194.2,0.000101,-0.000127,-0.013792,-0.000254,   8.486
   194.4,0.000108,-0.000130,-0.013824,-0.000254,   8.488
   194.6,0.000101,-0.000125,-0.013889,-0.000217,   8.486
   194.8,0.000101,-0.000125,-0.013999,-0.000203,   8.488
   195.0,0.000108,-0.000123,-0.013967,-0.000241,   8.489
   195.2,0.000101,-0.000125,-0.013889,-0.000241,   8.484
   195.4,0.000101,-0.000128,-0.013772,-0.000228,   8.487
   195.6,0.000101,-0.000125,-0.013752,-0.000203,   8.488
   195.8,0.000090,-0.000123,-0.013784,-0.000241,   8.490
   196.0,0.000098,-0.000126,-0.013837,-0.000190,   8.486
   196.2,0.000098,-0.000121,-0.013824,-0.000166,   8.488
   196.4,0.000087,-0.000124,-0.013824,-0.000203,   8.487
   196.6,0.000095,-0.000122,-0.013824,-0.000152,   8.485
   196.8,0.000098,-0.000124,-0.013767,-0.000166,   8.486
   197.0,0.000098,-0.000124,-0.013674,-0.000203,   8.486
   197.2,0.000090,-0.000124,-0.013589,-0.000152,   8.486
   197.4,0.000098,-0.000126,-0.014176,-0.000166,   8.485
   197.6,0.000098,-0.000129,-0.015094,-0.000203,   8.490
   197.8,0.000102,-0.000135,-0.016363,-0.000190,   8.488
   198.0,0.000108,-0.000133,-0.016435,-0.000203,   8.488
   198.2,0.000106,-0.000136,-0.016081,-0.000241,   8.484
   198.4,0.000102,-0.000141,-0.015296,-0.000241,   8.482
   198.6,0.000105,-0.000136,-0.015054,-0.000217,   8.487
   198.8,0.000100,-0.000136,-0.014856,-0.000254,   8.492
   199.0,0.000096,-0.000133,-0.014711,-0.000241,   8.489
   199.2,0.000103,-0.000132,-0.014516,-0.000203,   8.487
   199.4,0.000103,-0.000132,-0.014306,-0.000241,   8.490
   199.6,0.000099,-0.000132,-0.014083,-0.000228,   8.485
   199.8,0.000107,-0.000134,-0.013953,-0.000203,   8.484
   200.0,0.000107,-0.000131,-0.013880,-0.000241,   8.485
   200.2,0.000102,-0.000128,-0.013860,-0.000228,   8.485
   200.4,0.000099,-0.000130,-0.013840,-0.000203,   8.482
   200.6,0.000099,-0.000130,-0.013860,-0.000241,   8.486
   200.8,0.000095,-0.000126,-0.013905,-0.000241,   8.484
   201.0,0.000089,-0.000127,-0.013925,-0.000217,   8.490
   201.2,0.000085,-0.000125,-0.013930,-0.000254,   8.487
   201.4,0.000078,-0.000129,-0.013962,-0.000254,   8.489
   201.6,0.000085,-0.000131,-0.013942,-0.000217,   8.488
   201.8,0.000090,-0.000133,-0.013897,-0.000217,   8.487
   202.0,0.000082,-0.000134,-0.013824,-0.000254,   8.483
   202.2,0.000085,-0.000143,-0.013739,-0.000203,   8.483
   202.4,0.000090,-0.000148,-0.013662,-0.000217,   8.491
   202.6,0.000082,-0.000149,-0.013589,-0.000241,   8.486
   202.8,0.000085,-0.000150,-0.013532,-0.000203,   8.490
   203.0,0.000090,-0.000151,-0.013552,-0.000217,   8.486
   203.2,0.000082,-0.000152,-0.013617,-0.000254,   8.487
   203.4,0.000082,-0.000155,-0.013747,-0.000254,   8.486
   203.6,0.000087,-0.000158,-0.013735,-0.000217,   8.487
   203.8,0.000079,-0.000158,-0.013670,-0.000254,   8.487
   204.0,0.000079,-0.000152,-0.013597,-0.000254,   8.485
   204.2,0.000087,-0.000150,-0.013605,-0.000217,   8.490
   204.4,0.000079,-0.000152,-0.013597,-0.000254,   8.486
   204.6,0.000079,-0.000145,-0.013650,-0.000254,   8.486
   204.8,0.000079,-0.000147,-0.013682,-0.000217,   8.487
   205.0,0.000072,-0.000152,-0.013747,-0.000254,   8.489
   205.2,0.000079,-0.000152,-0.013812,-0.000254,   8.483
   205.4,0.000084,-0.000152,-0.013857,-0.000217,   8.488
   205.6,0.000076,-0.000150,-0.013942,-0.000254,   8.486
   205.8,0.000076,-0.000147,-0.014027,-0.000254,   8.485
   206.0,0.000081,-0.000146,-0.014027,-0.000217,   8.485
   206.2,0.000073,-0.000144,-0.014035,-0.000254,   8.487
   206.4,0.000073,-0.000144,-0.013995,-0.000254,   8.484
   206.6,0.000081,-0.000144,-0.013995,-0.000217,   8.488
   206.8,0.000081,-0.000139,-0.014015,-0.000254,   8.484
   207.0,0.000076,-0.000148,-0.014027,-0.000254,   8.486
   207.2,0.000076,-0.000151,-0.013995,-0.000217,   8.486
   207.4,0.000076,-0.000148,-0.013950,-0.000254,   8.488
   207.6,0.000079,-0.000152,-0.013885,-0.000254,   8.489
   207.8,0.000076,-0.000151,-0.013905,-0.000217,   8.490
   208.0,0.000076,-0.000150,-0.013938,-0.000254,   8.485
   208.2,0.000069,-0.000149,-0.014015,-0.000254,   8.490
   208.4,0.000079,-0.000150,-0.014023,-0.000217,   8.486
   208.6,0.000076,-0.000150,-0.014023,-0.000254,   8.482
   208.8,0.000066,-0.000153,-0.014003,-0.000217,   8.487
   209.0,0.000073,-0.000154,-0.013958,-0.000179,   8.487
   209.2,0.000070,-0.000157,-0.013893,-0.000217,   8.482
   209.4,0.000059,-0.000165,-0.013808,-0.000217,   8.487
   209.6,0.000067,-0.000154,-0.013775,-0.000217,   8.484
   209.8,0.000067,-0.000154,-0.013783,-0.000254,   8.487
   210.0,0.000063,-0.000154,-0.013808,-0.000254,   8.479
   210.2,0.000067,-0.000151,-0.014031,-0.000217,   8.487
   210.4,0.000061,-0.000148,-0.014419,-0.000268,   8.490
   210.6,0.000056,-0.000150,-0.014924,-0.000268,   8.488
   210.8,0.000064,-0.000155,-0.014899,-0.000230,   8.485
   211.0,0.000068,-0.000155,-0.014689,-0.000281,   8.490
   211.2,0.000064,-0.000153,-0.014305,-0.000281,   8.486
   211.4,0.000064,-0.000156,-0.014114,-0.000230,   8.483
   211.6,0.000068,-0.000156,-0.013932,-0.000230,   8.484
   211.8,0.000064,-0.000158,-0.013774,-0.000268,   8.488
   212.0,0.000064,-0.000160,-0.013628,-0.000230,   8.485
   212.2,0.000068,-0.000157,-0.013641,-0.000230,   8.487
   212.4,0.000064,-0.000161,-0.013758,-0.000268,   8.485
   212.6,0.000064,-0.000164,-0.013941,-0.000230,   8.484
   212.8,0.000068,-0.000171,-0.013986,-0.000230,   8.485
   213.0,0.000064,-0.000168,-0.013986,-0.000268,   8.486
   213.2,0.000064,-0.000168,-0.013973,-0.000268,   8.487
   213.4,0.000068,-0.000168,-0.013986,-0.000230,   8.487
   213.6,0.000064,-0.000168,-0.014018,-0.000268,   8.485
   213.8,0.000061,-0.000171,-0.014071,-0.000268,   8.488
   214.0,0.000065,-0.000168,-0.014059,-0.000230,   8.485
   214.2,0.000061,-0.000170,-0.014026,-0.000254,   8.481
   214.4,0.000058,-0.000169,-0.014014,-0.000254,   8.491
   214.6,0.000065,-0.000163,-0.014034,-0.000217,   8.488
   214.8,0.000061,-0.000163,-0.014066,-0.000241,   8.486
   215.0,0.000058,-0.000165,-0.014131,-0.000241,   8.485
   215.2,0.000065,-0.000168,-0.014382,-0.000217,   8.490
   215.4,0.000061,-0.000165,-0.014782,-0.000254,   8.489
   215.6,0.000058,-0.000168,-0.015279,-0.000254,   8.486
   215.8,0.000065,-0.000174,-0.015803,-0.000217,   8.489
   216.0,0.000065,-0.000172,-0.016438,-0.000254,   8.484
   216.2,0.000061,-0.000174,-0.017137,-0.000254,   8.488
   216.4,0.000068,-0.000173,-0.017013,-0.000217,   8.491
   216.6,0.000065,-0.000168,-0.016591,-0.000254,   8.488
   216.8,0.000068,-0.000175,-0.015774,-0.000254,   8.484
   217.0,0.000068,-0.000172,-0.015427,-0.000254,   8.487
   217.2,0.000065,-0.000172,-0.015173,-0.000254,   8.488
   217.4,0.000061,-0.000172,-0.014975,-0.000254,   8.483
   217.6,0.000061,-0.000172,-0.014786,-0.000254,   8.491
   217.8,0.000068,-0.000172,-0.014636,-0.000254,   8.488
   218.0,0.000064,-0.000169,-0.014551,-0.000254,   8.489
   218.2,0.000064,-0.000164,-0.014426,-0.000254,   8.489
   218.4,0.000061,-0.000162,-0.014341,-0.000254,   8.490
   218.6,0.000056,-0.000162,-0.014288,-0.000254,   8.486
   218.8,0.000061,-0.000164,-0.014288,-0.000254,   8.486
   219.0,0.000058,-0.000164,-0.014333,-0.000254,   8.490
   219.2,0.000053,-0.000170,-0.014430,-0.000254,   8.491
   219.4,0.000058,-0.000170,-0.014438,-0.000217,   8.490
   219.6,0.000058,-0.000170,-0.014385,-0.000254,   8.487
   219.8,0.000053,-0.000167,-0.014292,-0.000254,   8.488
   220.0,0.000058,-0.000158,-0.014235,-0.000217,   8.489
   220.2,0.000058,-0.000158,-0.014138,-0.000254,   8.488
   220.4,0.000053,-0.000159,-0.014000,-0.000254,   8.491
   220.6,0.000058,-0.000156,-0.013968,-0.000217,   8.494
   220.8,0.000058,-0.000154,-0.013976,-0.000217,   8.487
   221.0,0.000053,-0.000160,-0.014000,-0.000254,   8.488
   221.2,0.000058,-0.000160,-0.014065,-0.000203,   8.489
   221.4,0.000065,-0.000160,-0.014045,-0.000217,   8.489
   221.6,0.000061,-0.000162,-0.014065,-0.000241,   8.488
   221.8,0.000064,-0.000167,-0.014065,-0.000203,   8.488
   222.0,0.000077,-0.000167,-0.014130,-0.000203,   8.488
   222.2,0.000076,-0.000164,-0.014248,-0.000241,   8.483
   222.4,0.000079,-0.000164,-0.014390,-0.000228,   8.489
   222.6,0.000085,-0.000162,-0.014410,-0.000203,   8.485
   222.8,0.000084,-0.000160,-0.014377,-0.000241,   8.490
   223.0,0.000095,-0.000152,-0.014300,-0.000228,   8.490
   223.2,0.000095,-0.000146,-0.014603,-0.000203,   8.487
   223.4,0.000094,-0.000152,-0.015056,-0.000241,   8.488
   223.6,0.000104,-0.000146,-0.015673,-0.000228,   8.487
   223.8,0.000107,-0.000143,-0.015673,-0.000203,   8.489
   224.0,0.000106,-0.000138,-0.015483,-0.000241,   8.486
   224.2,0.000113,-0.000136,-0.015084,-0.000228,   8.488
   224.4,0.000121,-0.000131,-0.015209,-0.000228,   8.487
   224.6,0.000116,-0.000132,-0.015491,-0.000228,   8.489
   224.8,0.000120,-0.000133,-0.015914,-0.000214,   8.492
   225.0,0.000130,-0.000130,-0.015830,-0.000214,   8.490
   225.2,0.000130,-0.000131,-0.015616,-0.000214,   8.485
   225.4,0.000126,-0.000137,-0.015176,-0.000201,   8.491
   225.6,0.000130,-0.000129,-0.014999,-0.000214,   8.490
   225.8,0.000130,-0.000127,-0.014922,-0.000201,   8.488
   226.0,0.000130,-0.000122,-0.014869,-0.000201,   8.489
   226.2,0.000130,-0.000119,-0.014732,-0.000201,   8.490
   226.4,0.000130,-0.000117,-0.014615,-0.000187,   8.490
   226.6,0.000126,-0.000117,-0.014485,-0.000201,   8.492
   226.8,0.000126,-0.000115,-0.014452,-0.000201,   8.493
   227.0,0.000130,-0.000109,-0.014485,-0.000187,   8.490
   227.2,0.000126,-0.000111,-0.014562,-0.000201,   8.489
   227.4,0.000123,-0.000110,-0.014509,-0.000201,   8.490
   227.6,0.000127,-0.000107,-0.014445,-0.000187,   8.486
   227.8,0.000120,-0.000111,-0.014327,-0.000201,   8.491
   228.0,0.000116,-0.000115,-0.014315,-0.000201,   8.490
   228.2,0.000118,-0.000120,-0.014335,-0.000187,   8.488
   228.4,0.000107,-0.000125,-0.014392,-0.000201,   8.485
   228.6,0.000104,-0.000118,-0.014412,-0.000201,   8.490
   228.8,0.000105,-0.000118,-0.014432,-0.000187,   8.489
   229.0,0.000095,-0.000121,-0.014445,-0.000187,   8.486
   229.2,0.000092,-0.000124,-0.014477,-0.000187,   8.491
   229.4,0.000096,-0.000124,-0.014530,-0.000187,   8.492
   229.6,0.000093,-0.000121,-0.014579,-0.000187,   8.492
   229.8,0.000094,-0.000124,-0.014656,-0.000238,   8.491
   230.0,0.000104,-0.000124,-0.014656,-0.000201,   8.492
   230.2,0.000104,-0.000129,-0.014644,-0.000225,   8.492
   230.4,0.000089,-0.000132,-0.014583,-0.000238,   8.491
   230.6,0.000089,-0.000136,-0.014511,-0.000201,   8.491
   230.8,0.000092,-0.000141,-0.014413,-0.000201,   8.489
   231.0,0.000085,-0.000137,-0.014316,-0.000201,   8.492
   231.2,0.000089,-0.000140,-0.014328,-0.000214,   8.491
   231.4,0.000085,-0.000145,-0.014413,-0.000214,   8.491
   231.6,0.000085,-0.000145,-0.014523,-0.000201,   8.492
   231.8,0.000085,-0.000143,-0.014531,-0.000214,   8.490
   232.0,0.000077,-0.000143,-0.014518,-0.000214,   8.488
   232.2,0.000085,-0.000143,-0.014466,-0.000201,   8.491
   232.4,0.000082,-0.000143,-0.014466,-0.000214,   8.488
   232.6,0.000077,-0.000148,-0.014486,-0.000214,   8.488
   232.8,0.000074,-0.000147,-0.014498,-0.000214,   8.492
   233.0,0.000071,-0.000151,-0.014413,-0.000228,   8.488
   233.2,0.000067,-0.000153,-0.014356,-0.000228,   8.491
   233.4,0.000064,-0.000151,-0.014239,-0.000228,   8.490
   233.6,0.000071,-0.000151,-0.014251,-0.000228,   8.489
   233.8,0.000068,-0.000149,-0.014336,-0.000228,   8.488
   234.0,0.000061,-0.000154,-0.014478,-0.000228,   8.487
   234.2,0.000065,-0.000154,-0.014458,-0.000228,   8.492
   234.4,0.000062,-0.000152,-0.014433,-0.000228,   8.492
   234.6,0.000062,-0.000157,-0.014356,-0.000228,   8.492
   234.8,0.000051,-0.000155,-0.014316,-0.000228,   8.490
   235.0,0.000055,-0.000155,-0.014336,-0.000228,   8.493
   235.2,0.000047,-0.000160,-0.014348,-0.000228,   8.492
   235.4,0.000055,-0.000164,-0.014356,-0.000228,   8.493
   235.6,0.000051,-0.000167,-0.014389,-0.000228,   8.491
   235.8,0.000044,-0.000166,-0.014421,-0.000228,   8.491
   236.0,0.000051,-0.000165,-0.014417,-0.000241,   8.491
   236.2,0.000048,-0.000162,-0.014376,-0.000241,   8.490
   236.4,0.000041,-0.000167,-0.014324,-0.000241,   8.491
   236.6,0.000051,-0.000166,-0.014344,-0.000217,   8.486
   236.8,0.000051,-0.000169,-0.014376,-0.000254,   8.486
   237.0,0.000044,-0.000165,-0.014421,-0.000254,   8.485
   237.2,0.000051,-0.000165,-0.014401,-0.000217,   8.490
   237.4,0.000051,-0.000172,-0.014393,-0.000254,   8.491
   237.6,0.000044,-0.000172,-0.014381,-0.000254,   8.490
   237.8,0.000051,-0.000173,-0.014348,-0.000217,   8.493
   238.0,0.000048,-0.000170,-0.014296,-0.000217,   8.487
   238.2,0.000041,-0.000166,-0.014251,-0.000254,   8.489
   238.4,0.000048,-0.000169,-0.014186,-0.000203,   8.492
   238.6,0.000045,-0.000169,-0.014226,-0.000217,   8.488
   238.8,0.000038,-0.000170,-0.014299,-0.000241,   8.489
   239.0,0.000045,-0.000168,-0.014396,-0.000203,   8.489
   239.2,0.000045,-0.000172,-0.014389,-0.000217,   8.489
   239.4,0.000038,-0.000176,-0.014369,-0.000254,   8.491
   239.6,0.000045,-0.000170,-0.014316,-0.000254,   8.492
   239.8,0.000045,-0.000168,-0.014336,-0.000217,   8.488
   240.0,0.000035,-0.000173,-0.014369,-0.000254,   8.489
   240.2,0.000042,-0.000171,-0.014433,-0.000254,   8.486
   240.4,0.000042,-0.000171,-0.014559,-0.000254,   8.490
   240.6,0.000032,-0.000174,-0.014756,-0.000254,   8.488
   240.8,0.000039,-0.000174,-0.015011,-0.000254,   8.485
   241.0,0.000042,-0.000174,-0.015031,-0.000254,   8.490
   241.2,0.000038,-0.000168,-0.014979,-0.000254,   8.491
   241.4,0.000045,-0.000168,-0.014834,-0.000254,   8.490
   241.6,0.000045,-0.000169,-0.015116,-0.000254,   8.490
   241.8,0.000041,-0.000164,-0.015588,-0.000254,   8.488
   242.0,0.000051,-0.000166,-0.016256,-0.000254,   8.489
   242.2,0.000051,-0.000174,-0.016224,-0.000254,   8.491
   242.4,0.000051,-0.000177,-0.015982,-0.000268,   8.489
   242.6,0.000044,-0.000172,-0.015483,-0.000268,   8.490
   242.8,0.000051,-0.000168,-0.015261,-0.000230,   8.489
   243.0,0.000048,-0.000168,-0.015059,-0.000281,   8.487
   243.2,0.000051,-0.000175,-0.014882,-0.000281,   8.489
   243.4,0.000056,-0.000170,-0.014784,-0.000230,   8.487
   243.6,0.000056,-0.000171,-0.014704,-0.000254,   8.485
   243.8,0.000048,-0.000171,-0.014716,-0.000254,   8.490
   244.0,0.000048,-0.000171,-0.014631,-0.000217,   8.487
   244.2,0.000053,-0.000174,-0.014534,-0.000241,   8.489
   244.4,0.000045,-0.000174,-0.014449,-0.000241,   8.486
   244.6,0.000045,-0.000174,-0.014404,-0.000217,   8.489
   244.8,0.000053,-0.000177,-0.014352,-0.000254,   8.489
   245.0,0.000045,-0.000174,-0.014332,-0.000254,   8.487
   245.2,0.000045,-0.000171,-0.014404,-0.000217,   8.489
   245.4,0.000053,-0.000171,-0.014522,-0.000254,   8.486
   245.6,0.000045,-0.000168,-0.014656,-0.000254,   8.486
   245.8,0.000045,-0.000167,-0.014603,-0.000217,   8.488
   246.0,0.000053,-0.000169,-0.014526,-0.000254,   8.490
   246.2,0.000045,-0.000168,-0.014364,-0.000254,   8.486
   246.4,0.000045,-0.000170,-0.014311,-0.000217,   8.487
   246.6,0.000053,-0.000170,-0.014332,-0.000254,   8.488
   246.8,0.000045,-0.000173,-0.014384,-0.000254,   8.489
   247.0,0.000048,-0.000174,-0.014404,-0.000217,   8.489
   247.2,0.000059,-0.000175,-0.014424,-0.000217,   8.489
   247.4,0.000051,-0.000172,-0.014429,-0.000254,   8.483
   247.6,0.000051,-0.000175,-0.014461,-0.000217,   8.487
   247.8,0.000059,-0.000173,-0.014396,-0.000230,   8.489
   248.0,0.000051,-0.000173,-0.014339,-0.000268,   8.487
   248.2,0.000055,-0.000170,-0.014234,-0.000230,   8.486
   248.4,0.000062,-0.000172,-0.014234,-0.000230,   8.486
   248.6,0.000055,-0.000175,-0.014299,-0.000268,   8.489
   248.8,0.000055,-0.000174,-0.014396,-0.000268,   8.484
   249.0,0.000059,-0.000176,-0.014389,-0.000230,   8.486
   249.2,0.000051,-0.000174,-0.014409,-0.000254,   8.490
   249.4,0.000051,-0.000176,-0.014396,-0.000254,   8.491
   249.6,0.000056,-0.000176,-0.014384,-0.000217,   8.489
   249.8,0.000048,-0.000173,-0.014372,-0.000241,   8.487
   250.0,0.000051,-0.000169,-0.014332,-0.000228,   8.485
   250.2,0.000048,-0.000163,-0.014319,-0.000203,   8.485
   250.4,0.000041,-0.000161,-0.014315,-0.000241,   8.486
   250.6,0.000051,-0.000168,-0.014287,-0.000228,   8.488
   250.8,0.000048,-0.000173,-0.014445,-0.000203,   8.483
   251.0,0.000041,-0.000170,-0.014700,-0.000241,   8.487
   251.2,0.000051,-0.000173,-0.015079,-0.000228,   8.483
   251.4,0.000056,-0.000169,-0.015112,-0.000203,   8.487
   251.6,0.000048,-0.000169,-0.015019,-0.000241,   8.486
   251.8,0.000048,-0.000167,-0.014841,-0.000228,   8.483
   252.0,0.000053,-0.000172,-0.014777,-0.000203,   8.484
   252.2,0.000053,-0.000173,-0.014712,-0.000241,   8.483
   252.4,0.000042,-0.000170,-0.014639,-0.000228,   8.489
   252.6,0.000053,-0.000165,-0.014542,-0.000203,   8.488
   252.8,0.000050,-0.000168,-0.014452,-0.000241,   8.486
   253.0,0.000050,-0.000172,-0.014327,-0.000241,   8.486
   253.2,0.000053,-0.000169,-0.014242,-0.000217,   8.486
   253.4,0.000053,-0.000169,-0.014197,-0.000254,   8.483
   253.6,0.000048,-0.000167,-0.014177,-0.000254,   8.485
   253.8,0.000051,-0.000169,-0.014165,-0.000217,   8.486
   254.0,0.000059,-0.000176,-0.014145,-0.000254,   8.485
   254.2,0.000051,-0.000172,-0.014165,-0.000254,   8.486
   254.4,0.000051,-0.000173,-0.014217,-0.000217,   8.486
   254.6,0.000056,-0.000182,-0.014282,-0.000254,   8.484
   254.8,0.000048,-0.000174,-0.014372,-0.000254,   8.484
   255.0,0.000051,-0.000173,-0.014700,-0.000217,   8.486
   255.2,0.000056,-0.000173,-0.015212,-0.000254,   8.485
   255.4,0.000048,-0.000173,-0.015813,-0.000254,   8.491
   255.6,0.000051,-0.000172,-0.015942,-0.000217,   8.484
   255.8,0.000059,-0.000175,-0.015962,-0.000254,   8.485
   256.0,0.000051,-0.000177,-0.015813,-0.000254,   8.481
   256.2,0.000051,-0.000176,-0.015749,-0.000217,   8.487
   256.4,0.000059,-0.000176,-0.015616,-0.000217,   8.485
   256.6,0.000056,-0.000176,-0.015507,-0.000230,   8.485
   256.8,0.000060,-0.000174,-0.015329,-0.000217,   8.487
   257.0,0.000076,-0.000172,-0.015232,-0.000206,   8.485
   257.2,0.000082,-0.000174,-0.015120,-0.000193,   8.489
   257.4,0.000071,-0.000173,-0.015047,-0.000230,   8.484
   257.6,0.000080,-0.000171,-0.014942,-0.000193,   8.487
   257.8,0.000082,-0.000174,-0.014845,-0.000230,   8.486
   258.0,0.000088,-0.000166,-0.014780,-0.000193,   8.485
   258.2,0.000091,-0.000161,-0.014683,-0.000193,   8.483
   258.4,0.000090,-0.000164,-0.014593,-0.000217,   8.488
   258.6,0.000096,-0.000160,-0.014508,-0.000217,   8.485
   258.8,0.000096,-0.000155,-0.014496,-0.000217,   8.489
   259.0,0.000092,-0.000150,-0.014536,-0.000241,   8.485
   259.2,0.000095,-0.000151,-0.014601,-0.000228,   8.484
   259.4,0.000105,-0.000151,-0.014601,-0.000203,   8.486
   259.6,0.000101,-0.000151,-0.014621,-0.000241,   8.486
   259.8,0.000104,-0.000148,-0.014601,-0.000228,   8.486
   260.0,0.000111,-0.000141,-0.014549,-0.000203,   8.487
   260.2,0.000107,-0.000137,-0.014504,-0.000241,   8.485
   260.4,0.000113,-0.000137,-0.014439,-0.000214,   8.487
   260.6,0.000118,-0.000136,-0.014492,-0.000177,   8.484
   260.8,0.000121,-0.000129,-0.014601,-0.000201,   8.486
   261.0,0.000116,-0.000127,-0.014776,-0.000201,   8.483
   261.2,0.000113,-0.000125,-0.014881,-0.000163,   8.486
   261.4,0.000113,-0.000122,-0.014965,-0.000187,   8.484
   261.6,0.000116,-0.000125,-0.015070,-0.000201,   8.484
   261.8,0.000116,-0.000121,-0.015038,-0.000163,   8.483
   262.0,0.000116,-0.000118,-0.014941,-0.000187,   8.484
   262.2,0.000109,-0.000119,-0.014791,-0.000201,   8.484
   262.4,0.000116,-0.000109,-0.014767,-0.000163,   8.488
   262.6,0.000118,-0.000106,-0.014779,-0.000187,   8.487
   262.8,0.000110,-0.000112,-0.014816,-0.000201,   8.485
   263.0,0.000110,-0.000109,-0.014949,-0.000163,   8.487
   263.2,0.000115,-0.000109,-0.015118,-0.000187,   8.488
   263.4,0.000107,-0.000117,-0.015341,-0.000201,   8.487
   263.6,0.000104,-0.000116,-0.015328,-0.000163,   8.487
   263.8,0.000108,-0.000114,-0.015223,-0.000187,   8.486
   264.0,0.000098,-0.000119,-0.014993,-0.000201,   8.490
   264.2,0.000095,-0.000117,-0.014929,-0.000163,   8.486
   264.4,0.000099,-0.000117,-0.014868,-0.000187,   8.487
   264.6,0.000092,-0.000119,-0.014828,-0.000201,   8.487
   264.8,0.000089,-0.000121,-0.014796,-0.000163,   8.488
   265.0,0.000096,-0.000121,-0.014743,-0.000163,   8.487
   265.2,0.000089,-0.000127,-0.014703,-0.000201,   8.482
   265.4,0.000089,-0.000127,-0.014683,-0.000163,   8.489
   265.6,0.000090,-0.000132,-0.014610,-0.000177,   8.490
   265.8,0.000082,-0.000140,-0.014578,-0.000214,   8.485
   266.0,0.000082,-0.000143,-0.014545,-0.000177,   8.487
   266.2,0.000084,-0.000145,-0.014525,-0.000177,   8.484
   266.4,0.000076,-0.000150,-0.014578,-0.000214,   8.488
   266.6,0.000076,-0.000144,-0.014635,-0.000201,   8.487
   266.8,0.000081,-0.000146,-0.014615,-0.000177,   8.486
   267.0,0.000070,-0.000151,-0.014602,-0.000214,   8.485
   267.2,0.000070,-0.000148,-0.014570,-0.000201,   8.485
   267.4,0.000077,-0.000148,-0.014578,-0.000177,   8.489
   267.6,0.000067,-0.000148,-0.014598,-0.000214,   8.485
   267.8,0.000064,-0.000153,-0.014610,-0.000214,   8.486
   268.0,0.000071,-0.000153,-0.014630,-0.000203,   8.485
   268.2,0.000067,-0.000153,-0.014663,-0.000241,   8.487
   268.4,0.000064,-0.000163,-0.014679,-0.000228,   8.491
   268.6,0.000064,-0.000160,-0.014635,-0.000203,   8.487
   268.8,0.000059,-0.000166,-0.014578,-0.000241,   8.487
   269.0,0.000064,-0.000168,-0.014452,-0.000228,   8.487
   269.2,0.000064,-0.000166,-0.014452,-0.000203,   8.491
   269.4,0.000061,-0.000169,-0.014485,-0.000241,   8.488
   269.6,0.000053,-0.000169,-0.014582,-0.000228,   8.485
   269.8,0.000061,-0.000172,-0.014602,-0.000203,   8.487
   270.0,0.000058,-0.000178,-0.014615,-0.000241,   8.489
   270.2,0.000058,-0.000172,-0.014635,-0.000228,   8.487
   270.4,0.000058,-0.000174,-0.014663,-0.000203,   8.493
   270.6,0.000058,-0.000178,-0.014655,-0.000241,   8.489
   270.8,0.000053,-0.000174,-0.014667,-0.000228,   8.485
   271.0,0.000058,-0.000179,-0.014667,-0.000203,   8.487
   271.2,0.000058,-0.000185,-0.014707,-0.000241,   8.485
   271.4,0.000053,-0.000174,-0.014720,-0.000228,   8.486
   271.6,0.000058,-0.000173,-0.014687,-0.000203,   8.489
   271.8,0.000058,-0.000176,-0.014655,-0.000241,   8.486
   272.0,0.000050,-0.000174,-0.014602,-0.000241,   8.485
   272.2,0.000058,-0.000179,-0.014590,-0.000217,   8.487
   272.4,0.000055,-0.000182,-0.014582,-0.000254,   8.487
   272.6,0.000047,-0.000179,-0.014622,-0.000254,   8.485
   272.8,0.000058,-0.000176,-0.014610,-0.000217,   8.486
   273.0,0.000055,-0.000182,-0.014570,-0.000254,   8.486
   273.2,0.000047,-0.000181,-0.014558,-0.000254,   8.486
   273.4,0.000058,-0.000180,-0.014558,-0.000217,   8.486
   273.6,0.000055,-0.000186,-0.014570,-0.000254,   8.486
   273.8,0.000051,-0.000178,-0.014622,-0.000254,   8.490
   274.0,0.000057,-0.000178,-0.014643,-0.000217,   8.489
   274.2,0.000067,-0.000183,-0.014655,-0.000217,   8.486
   274.4,0.000067,-0.000178,-0.014683,-0.000254,   8.489
   274.6,0.000052,-0.000180,-0.014695,-0.000203,   8.488
   274.8,0.000058,-0.000183,-0.014675,-0.000203,   8.484
   275.0,0.000054,-0.000183,-0.014675,-0.000228,   8.484
   275.2,0.000046,-0.000179,-0.014635,-0.000203,   8.486
   275.4,0.000046,-0.000182,-0.014590,-0.000203,   8.489
   275.6,0.000042,-0.000181,-0.014525,-0.000241,   8.493
   275.8,0.000042,-0.000177,-0.014460,-0.000241,   8.489
   276.0,0.000050,-0.000177,-0.014448,-0.000217,   8.490
   276.2,0.000045,-0.000180,-0.014448,-0.000254,   8.486
   276.4,0.000045,-0.000176,-0.014480,-0.000254,   8.490
   276.6,0.000053,-0.000179,-0.014513,-0.000217,   8.487
   276.8,0.000048,-0.000176,-0.014545,-0.000254,   8.486
   277.0,0.000048,-0.000179,-0.014618,-0.000254,   8.488
   277.2,0.000053,-0.000176,-0.014618,-0.000217,   8.488
   277.4,0.000045,-0.000173,-0.014606,-0.000254,   8.489
   277.6,0.000045,-0.000181,-0.014553,-0.000254,   8.487
   277.8,0.000053,-0.000176,-0.014541,-0.000217,   8.489
   278.0,0.000045,-0.000173,-0.014549,-0.000254,   8.487
   278.2,0.000045,-0.000187,-0.014533,-0.000254,   8.490
   278.4,0.000053,-0.000187,-0.015030,-0.000217,   8.490
   278.6,0.000053,-0.000190,-0.015837,-0.000254,   8.491
   278.8,0.000045,-0.000193,-0.016894,-0.000254,   8.488
   279.0,0.000053,-0.000188,-0.016919,-0.000217,   8.489
   279.2,0.000053,-0.000194,-0.016625,-0.000254,   8.490
   279.4,0.000053,-0.000188,-0.015946,-0.000254,   8.485
   279.6,0.000048,-0.000183,-0.015692,-0.000217,   8.487
   279.8,0.000045,-0.000183,-0.015522,-0.000254,   8.488
   280.0,0.000035,-0.000182,-0.015365,-0.000241,   8.489
   280.2,0.000042,-0.000181,-0.015175,-0.000203,   8.490
   280.4,0.000042,-0.000179,-0.015046,-0.000241,   8.488
   280.6,0.000035,-0.000179,-0.014901,-0.000228,   8.487
   280.8,0.000042,-0.000179,-0.014783,-0.000203,   8.484
   281.0,0.000045,-0.000182,-0.014678,-0.000241,   8.482
   281.2,0.000041,-0.000179,-0.014606,-0.000228,   8.486
   281.4,0.000041,-0.000185,-0.014573,-0.000203,   8.489
   281.6,0.000038,-0.000188,-0.014553,-0.000241,   8.486
   281.8,0.000030,-0.000183,-0.014606,-0.000241,   8.488
   282.0,0.000030,-0.000185,-0.014585,-0.000217,   8.485
   282.2,0.000038,-0.000186,-0.014573,-0.000268,   8.487
   282.4,0.000030,-0.000180,-0.014553,-0.000268,   8.488
   282.6,0.000030,-0.000180,-0.014573,-0.000230,   8.485
   282.8,0.000038,-0.000181,-0.014573,-0.000230,   8.487
   283.0,0.000030,-0.000179,-0.014626,-0.000268,   8.486
   283.2,0.000030,-0.000182,-0.014670,-0.000230,   8.486
   283.4,0.000038,-0.000187,-0.014658,-0.000230,   8.485
   283.6,0.000030,-0.000179,-0.014626,-0.000268,   8.485
   283.8,0.000038,-0.000175,-0.014573,-0.000230,   8.485
   284.0,0.000045,-0.000181,-0.014528,-0.000230,   8.487
   284.2,0.000038,-0.000175,-0.014496,-0.000268,   8.488
   284.4,0.000048,-0.000178,-0.014476,-0.000268,   8.483
   284.6,0.000051,-0.000183,-0.014443,-0.000230,   8.485
   284.8,0.000044,-0.000181,-0.014423,-0.000268,   8.487
   285.0,0.000051,-0.000183,-0.014403,-0.000268,   8.487
   285.2,0.000051,-0.000183,-0.014403,-0.000230,   8.488
   285.4,0.000044,-0.000189,-0.014436,-0.000254,   8.487
   285.6,0.000051,-0.000186,-0.014460,-0.000254,   8.486
   285.8,0.000051,-0.000180,-0.014755,-0.000217,   8.483
   286.0,0.000044,-0.000183,-0.015208,-0.000241,   8.484
   286.2,0.000051,-0.000183,-0.015817,-0.000241,   8.483
   286.4,0.000051,-0.000179,-0.015869,-0.000217,   8.486
   286.6,0.000044,-0.000182,-0.015712,-0.000268,   8.486
   286.8,0.000051,-0.000179,-0.015377,-0.000268,   8.488
   287.0,0.000051,-0.000172,-0.015869,-0.000244,   8.481
   287.2,0.000051,-0.000170,-0.016673,-0.000281,   8.484
   287.4,0.000044,-0.000173,-0.017820,-0.000281,   8.483
   287.6,0.000055,-0.000179,-0.018288,-0.000230,   8.484
   287.8,0.000051,-0.000174,-0.018600,-0.000268,   8.483
   288.0,0.000055,-0.000177,-0.018736,-0.000268,   8.484
   288.2,0.000051,-0.000175,-0.018424,-0.000230,   8.479
   288.4,0.000048,-0.000175,-0.017820,-0.000254,   8.487
   288.6,0.000041,-0.000177,-0.016922,-0.000254,   8.487
   288.8,0.000051,-0.000176,-0.016444,-0.000217,   8.485
   289.0,0.000048,-0.000176,-0.016098,-0.000241,   8.481
   289.2,0.000041,-0.000176,-0.015837,-0.000241,   8.487
   289.4,0.000055,-0.000166,-0.015619,-0.000217,   8.485
   289.6,0.000055,-0.000164,-0.015527,-0.000254,   8.485
   289.8,0.000050,-0.000169,-0.015507,-0.000254,   8.483
   290.0,0.000058,-0.000164,-0.015559,-0.000217,   8.487
   290.2,0.000058,-0.000161,-0.015716,-0.000254,   8.483
   290.4,0.000053,-0.000168,-0.015946,-0.000241,   8.481
   290.6,0.000058,-0.000168,-0.015857,-0.000203,   8.487
   290.8,0.000058,-0.000171,-0.015647,-0.000241,   8.480
   291.0,0.000053,-0.000168,-0.015320,-0.000228,   8.481
   291.2,0.000058,-0.000168,-0.015203,-0.000203,   8.484
   291.4,0.000058,-0.000171,-0.015175,-0.000241,   8.485
   291.6,0.000053,-0.000169,-0.015200,-0.000241,   8.484
   291.8,0.000058,-0.000167,-0.015127,-0.000217,   8.485
   292.0,0.000058,-0.000172,-0.015070,-0.000217,   8.483
   292.2,0.000053,-0.000172,-0.014965,-0.000254,   8.481
   292.4,0.000061,-0.000167,-0.014888,-0.000203,   8.481
   292.6,0.000061,-0.000172,-0.014831,-0.000217,   8.486
   292.8,0.000056,-0.000172,-0.014767,-0.000241,   8.486
   293.0,0.000067,-0.000167,-0.014674,-0.000203,   8.483
   293.2,0.000067,-0.000172,-0.014609,-0.000217,   8.482
   293.4,0.000066,-0.000167,-0.014544,-0.000254,   8.486
   293.6,0.000076,-0.000163,-0.014504,-0.000254,   8.479
   293.8,0.000076,-0.000163,-0.014471,-0.000217,   8.483
   294.0,0.000075,-0.000161,-0.014439,-0.000254,   8.485
   294.2,0.000089,-0.000163,-0.014427,-0.000254,   8.481
   294.4,0.000089,-0.000161,-0.014512,-0.000217,   8.484
   294.6,0.000087,-0.000159,-0.014674,-0.000254,   8.482
   294.8,0.000098,-0.000153,-0.014888,-0.000241,   8.484
   295.0,0.000108,-0.000148,-0.014908,-0.000203,   8.485
   295.2,0.000104,-0.000145,-0.014876,-0.000241,   8.483
   295.4,0.000107,-0.000141,-0.014811,-0.000228,   8.489
   295.6,0.000115,-0.000141,-0.014997,-0.000190,   8.481
   295.8,0.000107,-0.000136,-0.015251,-0.000228,   8.483
   296.0,0.000110,-0.000136,-0.015631,-0.000228,   8.483
   296.2,0.000118,-0.000132,-0.015703,-0.000190,   8.484
   296.4,0.000122,-0.000129,-0.015671,-0.000214,   8.487
   296.6,0.000125,-0.000129,-0.015518,-0.000214,   8.479
   296.8,0.000123,-0.000126,-0.015401,-0.000163,   8.487
   297.0,0.000128,-0.000126,-0.015271,-0.000187,   8.486
   297.2,0.000128,-0.000124,-0.015130,-0.000201,   8.488
   297.4,0.000120,-0.000124,-0.015077,-0.000163,   8.484
   297.6,0.000108,-0.000121,-0.015069,-0.000187,   8.487
   297.8,0.000104,-0.000122,-0.015114,-0.000187,   8.486
   298.0,0.000107,-0.000120,-0.015102,-0.000150,   8.483
   298.2,0.000104,-0.000123,-0.015062,-0.000174,   8.481
   298.4,0.000097,-0.000123,-0.015029,-0.000174,   8.487
   298.6,0.000104,-0.000125,-0.015291,-0.000150,   8.485
   298.8,0.000101,-0.000131,-0.015723,-0.000174,   8.488
   299.0,0.000090,-0.000128,-0.016299,-0.000174,   8.489
   299.2,0.000098,-0.000132,-0.016331,-0.000150,   8.487
   299.4,0.000095,-0.000135,-0.016178,-0.000174,   8.487
   299.6,0.000087,-0.000137,-0.015857,-0.000187,   8.487
   299.8,0.000089,-0.000136,-0.015635,-0.000163,   8.487
   300.0,0.000085,-0.000140,-0.015401,-0.000201,   8.485
   300.2,0.000081,-0.000143,-0.015154,-0.000201,   8.484
   300.4,0.000085,-0.000140,-0.015017,-0.000177,   8.486
   300.6,0.000085,-0.000143,-0.014924,-0.000177,   8.485
   300.8,0.000078,-0.000147,-0.014904,-0.000214,   8.487
   301.0,0.000082,-0.000151,-0.015344,-0.000177,   8.485
   301.2,0.000076,-0.000159,-0.016025,-0.000177,   8.486
   301.4,0.000066,-0.000154,-0.016986,-0.000214,   8.486
   301.6,0.000073,-0.000151,-0.018164,-0.000177,   8.489
   301.8,0.000067,-0.000161,-0.018144,-0.000177,   8.489
   302.0,0.000059,-0.000155,-0.017824,-0.000214,   8.488
   302.2,0.000067,-0.000156,-0.017191,-0.000201,   8.481
   302.4,0.000077,-0.000164,-0.016866,-0.000177,   8.487
   302.6,0.000070,-0.000159,-0.016512,-0.000214,   8.489
   302.8,0.000070,-0.000161,-0.016178,-0.000201,   8.488
   303.0,0.000077,-0.000161,-0.015905,-0.000177,   8.490
   303.2,0.000070,-0.000167,-0.015695,-0.000214,   8.487
   303.4,0.000070,-0.000159,-0.015538,-0.000214,   8.485
   303.6,0.000074,-0.000159,-0.015413,-0.000190,   8.487
   303.8,0.000070,-0.000159,-0.015381,-0.000228,   8.487
   304.0,0.000070,-0.000161,-0.015357,-0.000228,   8.484
   304.2,0.000067,-0.000158,-0.015220,-0.000190,   8.484
   304.4,0.000063,-0.000158,-0.015078,-0.000228,   8.484
   304.6,0.000070,-0.000163,-0.014876,-0.000228,   8.484
   304.8,0.000067,-0.000160,-0.014803,-0.000190,   8.488
   305.0,0.000063,-0.000157,-0.014824,-0.000228,   8.483
   305.2,0.000067,-0.000155,-0.014881,-0.000228,   8.487
   305.4,0.000064,-0.000150,-0.014796,-0.000190,   8.487
   305.6,0.000061,-0.000150,-0.014706,-0.000228,   8.486
   305.8,0.000053,-0.000152,-0.014589,-0.000203,   8.487
   306.0,0.000061,-0.000157,-0.014746,-0.000179,   8.486
   306.2,0.000061,-0.000155,-0.015082,-0.000217,   8.489
   306.4,0.000058,-0.000155,-0.015538,-0.000217,   8.487
   306.6,0.000062,-0.000155,-0.015570,-0.000217,   8.487
   306.8,0.000069,-0.000158,-0.015465,-0.000254,   8.487
   307.0,0.000065,-0.000160,-0.015236,-0.000254,   8.486
   307.2,0.000065,-0.000166,-0.015143,-0.000217,   8.488
   307.4,0.000065,-0.000163,-0.015083,-0.000254,   8.488
   307.6,0.000061,-0.000166,-0.015050,-0.000254,   8.489
   307.8,0.000058,-0.000163,-0.015030,-0.000217,   8.486
   308.0,0.000065,-0.000166,-0.015022,-0.000268,   8.486
   308.2,0.000061,-0.000166,-0.015055,-0.000230,   8.489
   308.4,0.000058,-0.000168,-0.015043,-0.000206,   8.487
   308.6,0.000065,-0.000171,-0.015002,-0.000230,   8.487
   308.8,0.000061,-0.000169,-0.014970,-0.000230,   8.485
   309.0,0.000058,-0.000169,-0.014893,-0.000217,   8.490
   309.2,0.000065,-0.000172,-0.014776,-0.000241,   8.489
   309.4,0.000061,-0.000172,-0.014646,-0.000241,   8.484
   309.6,0.000058,-0.000172,-0.014593,-0.000217,   8.487
   309.8,0.000065,-0.000178,-0.014569,-0.000217,   8.487
   310.0,0.000061,-0.000174,-0.014561,-0.000254,   8.486
   310.2,0.000058,-0.000174,-0.014601,-0.000203,   8.484
   310.4,0.000065,-0.000177,-0.014613,-0.000217,   8.487
   310.6,0.000058,-0.000177,-0.014666,-0.000241,   8.483
   310.8,0.000058,-0.000171,-0.014743,-0.000203,   8.485
   311.0,0.000062,-0.000174,-0.014711,-0.000217,   8.485
   311.2,0.000055,-0.000174,-0.014646,-0.000254,   8.488
   311.4,0.000058,-0.000171,-0.014528,-0.000254,   8.488
   311.6,0.000062,-0.000174,-0.014516,-0.000217,   8.488
   311.8,0.000055,-0.000168,-0.014524,-0.000254,   8.485
   312.0,0.000058,-0.000168,-0.014528,-0.000254,   8.488
   312.2,0.000062,-0.000166,-0.014573,-0.000217,   8.487
   312.4,0.000055,-0.000171,-0.014658,-0.000254,   8.487
   312.6,0.000058,-0.000169,-0.014780,-0.000254,   8.486
   312.8,0.000062,-0.000169,-0.014800,-0.000217,   8.485
   313.0,0.000055,-0.000171,-0.014768,-0.000254,   8.488
   313.2,0.000058,-0.000174,-0.014755,-0.000254,   8.489
   313.4,0.000062,-0.000168,-0.014711,-0.000217,   8.489
   313.6,0.000055,-0.000168,-0.014646,-0.000254,   8.485
   313.8,0.000058,-0.000170,-0.014581,-0.000254,   8.489
   314.0,0.000062,-0.000164,-0.014536,-0.000217,   8.486
   314.2,0.000055,-0.000166,-0.014476,-0.000254,   8.485
   314.4,0.000058,-0.000172,-0.014456,-0.000254,   8.487
   314.6,0.000062,-0.000166,-0.014468,-0.000217,   8.486
   314.8,0.000062,-0.000166,-0.014533,-0.000254,   8.485
   315.0,0.000058,-0.000169,-0.014650,-0.000217,   8.484
   315.2,0.000062,-0.000161,-0.014711,-0.000179,   8.487
   315.4,0.000062,-0.000161,-0.014715,-0.000217,   8.487
   315.6,0.000065,-0.000167,-0.014748,-0.000179,   8.488
   315.8,0.000055,-0.000166,-0.014723,-0.000179,   8.486
   316.0,0.000055,-0.000166,-0.014638,-0.000217,   8.488
   316.2,0.000047,-0.000169,-0.014521,-0.000166,   8.488
   316.4,0.000058,-0.000164,-0.014541,-0.000166,   8.487
   316.6,0.000055,-0.000164,-0.014585,-0.000203,   8.490
   316.8,0.000047,-0.000167,-0.014683,-0.000152,   8.488
   317.0,0.000058,-0.000174,-0.014670,-0.000166,   8.489
   317.2,0.000055,-0.000174,-0.014650,-0.000203,   8.491
   317.4,0.000047,-0.000179,-0.014646,-0.000166,   8.488
   317.6,0.000055,-0.000177,-0.014666,-0.000179,   8.487
   317.8,0.000051,-0.000175,-0.014678,-0.000217,   8.485
   318.0,0.000044,-0.000178,-0.014755,-0.000217,   8.485
   318.2,0.000051,-0.000170,-0.015018,-0.000217,   8.491
   318.4,0.000051,-0.000171,-0.015365,-0.000254,   8.491
   318.6,0.000044,-0.000171,-0.015849,-0.000254,   8.487
   318.8,0.000055,-0.000171,-0.015869,-0.000217,   8.489
   319.0,0.000055,-0.000173,-0.015732,-0.000217,   8.487
   319.2,0.000047,-0.000175,-0.015430,-0.000254,   8.484
   319.4,0.000050,-0.000171,-0.015647,-0.000203,   8.488
   319.6,0.000047,-0.000171,-0.015994,-0.000217,   8.484
   319.8,0.000043,-0.000176,-0.016549,-0.000241,   8.484
   320.0,0.000050,-0.000168,-0.017240,-0.000203,   8.483
   320.2,0.000058,-0.000169,-0.017123,-0.000217,   8.484
   320.4,0.000050,-0.000170,-0.016770,-0.000268,   8.489
   320.6,0.000058,-0.000173,-0.016175,-0.000230,   8.488
   320.8,0.000055,-0.000176,-0.015881,-0.000193,   8.481
   321.0,0.000050,-0.000168,-0.015615,-0.000230,   8.481
   321.2,0.000061,-0.000173,-0.015393,-0.000193,   8.489
   321.4,0.000068,-0.000175,-0.015256,-0.000179,   8.485
   321.6,0.000064,-0.000170,-0.015191,-0.000203,   8.483
   321.8,0.000061,-0.000172,-0.015183,-0.000166,   8.486
   322.0,0.000065,-0.000165,-0.015066,-0.000179,   8.486
   322.2,0.000061,-0.000168,-0.014949,-0.000217,   8.487
   322.4,0.000058,-0.000172,-0.014799,-0.000217,   8.484
   322.6,0.000065,-0.000170,-0.014714,-0.000217,   8.487
   322.8,0.000061,-0.000168,-0.014669,-0.000254,   8.483
   323.0,0.000058,-0.000173,-0.014649,-0.000254,   8.483
   323.2,0.000058,-0.000170,-0.015392,-0.000217,   8.483
   323.4,0.000058,-0.000170,-0.016523,-0.000254,   8.483
   323.6,0.000053,-0.000175,-0.018020,-0.000254,   8.486
   323.8,0.000061,-0.000170,-0.018064,-0.000217,   8.484
   324.0,0.000058,-0.000173,-0.017628,-0.000254,   8.482
   324.2,0.000061,-0.000168,-0.016629,-0.000254,   8.482
   324.4,0.000061,-0.000163,-0.016263,-0.000217,   8.480
   324.6,0.000061,-0.000164,-0.015969,-0.000254,   8.479
   324.8,0.000056,-0.000162,-0.015755,-0.000254,   8.480
   325.0,0.000064,-0.000162,-0.015606,-0.000217,   8.485
   325.2,0.000061,-0.000165,-0.015493,-0.000254,   8.483
   325.4,0.000056,-0.000163,-0.015465,-0.000254,   8.484
   325.6,0.000064,-0.000167,-0.015413,-0.000217,   8.485
   325.8,0.000061,-0.000173,-0.015385,-0.000254,   8.484
   326.0,0.000056,-0.000167,-0.015349,-0.000254,   8.482
   326.2,0.000064,-0.000164,-0.015309,-0.000217,   8.482
   326.4,0.000064,-0.000170,-0.015297,-0.000254,   8.483
   326.6,0.000059,-0.000165,-0.015277,-0.000241,   8.478
   326.8,0.000067,-0.000163,-0.015245,-0.000203,   8.483
   327.0,0.000067,-0.000170,-0.015200,-0.000241,   8.487
   327.2,0.000066,-0.000162,-0.015147,-0.000228,   8.482
   327.4,0.000076,-0.000161,-0.015050,-0.000203,   8.483
   327.6,0.000079,-0.000169,-0.014986,-0.000203,   8.485
   327.8,0.000078,-0.000166,-0.014908,-0.000241,   8.481
   328.0,0.000089,-0.000166,-0.015159,-0.000203,   8.479
   328.2,0.000092,-0.000164,-0.015558,-0.000203,   8.483
   328.4,0.000095,-0.000162,-0.016154,-0.000228,   8.483
   328.6,0.000099,-0.000155,-0.016910,-0.000203,   8.478
   328.8,0.000111,-0.000153,-0.016878,-0.000203,   8.485
   329.0,0.000110,-0.000148,-0.016649,-0.000241,   8.482
   329.2,0.000116,-0.000143,-0.016191,-0.000228,   8.483
   329.4,0.000119,-0.000144,-0.016211,-0.000203,   8.482
   329.6,0.000118,-0.000134,-0.016368,-0.000241,   8.480
   329.8,0.000124,-0.000132,-0.016669,-0.000228,   8.483
   330.0,0.000124,-0.000132,-0.016560,-0.000190,   8.483
   330.2,0.000120,-0.000124,-0.016299,-0.000214,   8.484
   330.4,0.000123,-0.000124,-0.015920,-0.000214,   8.486
   330.6,0.000133,-0.000122,-0.015739,-0.000163,   8.482
   330.8,0.000126,-0.000117,-0.015569,-0.000187,   8.481
   331.0,0.000126,-0.000120,-0.015444,-0.000201,   8.482
   331.2,0.000133,-0.000120,-0.015335,-0.000163,   8.479
   331.4,0.000126,-0.000125,-0.015250,-0.000187,   8.479
   331.6,0.000126,-0.000117,-0.015178,-0.000201,   8.486
   331.8,0.000130,-0.000109,-0.015101,-0.000163,   8.485
   332.0,0.000126,-0.000112,-0.015004,-0.000187,   8.483
   332.2,0.000126,-0.000112,-0.014911,-0.000187,   8.484
   332.4,0.000130,-0.000109,-0.014911,-0.000150,   8.483
   332.6,0.000130,-0.000112,-0.014963,-0.000174,   8.484
   332.8,0.000123,-0.000109,-0.015053,-0.000174,   8.480
   333.0,0.000127,-0.000106,-0.015230,-0.000150,   8.481
   333.2,0.000124,-0.000106,-0.015485,-0.000174,   8.485
   333.4,0.000121,-0.000111,-0.015811,-0.000174,   8.485
   333.6,0.000121,-0.000110,-0.015759,-0.000150,   8.484
   333.8,0.000118,-0.000110,-0.015577,-0.000174,   8.483
   334.0,0.000110,-0.000116,-0.015242,-0.000174,   8.484
   334.2,0.000110,-0.000110,-0.015339,-0.000150,   8.477
   334.4,0.000115,-0.000113,-0.015622,-0.000174,   8.483
   334.6,0.000107,-0.000115,-0.016065,-0.000174,   8.486
   334.8,0.000104,-0.000112,-0.016013,-0.000150,   8.485
   335.0,0.000108,-0.000112,-0.015811,-0.000174,   8.485
   335.2,0.000098,-0.000122,-0.015464,-0.000174,   8.482
   335.4,0.000095,-0.000122,-0.015557,-0.000150,   8.485
   335.6,0.000099,-0.000122,-0.015779,-0.000174,   8.484
   335.8,0.000089,-0.000132,-0.016170,-0.000187,   8.484
   336.0,0.000085,-0.000132,-0.016073,-0.000163,   8.483
   336.2,0.000090,-0.000137,-0.015819,-0.000201,   8.484
   336.4,0.000082,-0.000137,-0.015380,-0.000201,   8.485
   336.6,0.000085,-0.000137,-0.015222,-0.000177,   8.483
   336.8,0.000090,-0.000143,-0.015170,-0.000177,   8.482
   337.0,0.000087,-0.000138,-0.015170,-0.000214,   8.481
   337.2,0.000084,-0.000141,-0.015162,-0.000177,   8.481
   337.4,0.000092,-0.000149,-0.015162,-0.000177,   8.485
   337.6,0.000082,-0.000146,-0.015219,-0.000214,   8.481
   337.8,0.000082,-0.000145,-0.015296,-0.000190,   8.483
   338.0,0.000085,-0.000153,-0.015251,-0.000190,   8.483
   338.2,0.000081,-0.000155,-0.015159,-0.000228,   8.482
   338.4,0.000081,-0.000150,-0.015069,-0.000228,   8.486
   338.6,0.000081,-0.000153,-0.015005,-0.000190,   8.483
   338.8,0.000073,-0.000155,-0.014952,-0.000228,   8.482
   339.0,0.000073,-0.000152,-0.014892,-0.000228,   8.485
   339.2,0.000077,-0.000158,-0.014827,-0.000190,   8.486
   339.4,0.000067,-0.000153,-0.014802,-0.000228,   8.481
   339.6,0.000067,-0.000156,-0.014750,-0.000228,   8.482
   339.8,0.000077,-0.000151,-0.014750,-0.000190,   8.482
   340.0,0.000070,-0.000159,-0.014802,-0.000228,   8.483
   340.2,0.000067,-0.000161,-0.014872,-0.000228,   8.483
   340.4,0.000071,-0.000155,-0.014839,-0.000190,   8.485
   340.6,0.000067,-0.000159,-0.014795,-0.000228,   8.485
   340.8,0.000064,-0.000164,-0.014710,-0.000228,   8.480
   341.0,0.000061,-0.000158,-0.015065,-0.000190,   8.478
   341.2,0.000056,-0.000158,-0.015602,-0.000228,   8.484
   341.4,0.000061,-0.000163,-0.016351,-0.000228,   8.482
   341.6,0.000058,-0.000156,-0.016416,-0.000190,   8.484
   341.8,0.000058,-0.000159,-0.016251,-0.000228,   8.484
   342.0,0.000053,-0.000159,-0.015889,-0.000190,   8.482
   342.2,0.000061,-0.000159,-0.015857,-0.000166,   8.482
   342.4,0.000058,-0.000162,-0.015905,-0.000203,   8.486
   342.6,0.000061,-0.000162,-0.016009,-0.000190,   8.486
   342.8,0.000061,-0.000164,-0.015937,-0.000203,   8.484
   343.0,0.000058,-0.000167,-0.015820,-0.000241,   8.483
   343.2,0.000053,-0.000167,-0.015623,-0.000228,   8.485
   343.4,0.000058,-0.000158,-0.015498,-0.000203,   8.487
   343.6,0.000058,-0.000160,-0.015373,-0.000241,   8.485
   343.8,0.000050,-0.000163,-0.015276,-0.000228,   8.484
   344.0,0.000058,-0.000162,-0.015179,-0.000203,   8.485
   344.2,0.000055,-0.000162,-0.015074,-0.000241,   8.483
   344.4,0.000047,-0.000160,-0.015001,-0.000203,   8.485
   344.6,0.000058,-0.000162,-0.014936,-0.000179,   8.480
   344.8,0.000055,-0.000165,-0.014852,-0.000217,   8.483
   345.0,0.000050,-0.000160,-0.014779,-0.000203,   8.484
   345.2,0.000058,-0.000163,-0.014916,-0.000203,   8.480
   345.4,0.000058,-0.000167,-0.015179,-0.000241,   8.480
   345.6,0.000050,-0.000163,-0.015606,-0.000228,   8.481
   345.8,0.000058,-0.000168,-0.015666,-0.000203,   8.485
   346.0,0.000062,-0.000168,-0.015574,-0.000203,   8.483
   346.2,0.000055,-0.000164,-0.015392,-0.000241,   8.482
   346.4,0.000058,-0.000167,-0.015077,-0.000203,   8.483
   346.6,0.000062,-0.000167,-0.015674,-0.000217,   8.483
   346.8,0.000055,-0.000170,-0.016556,-0.000241,   8.484
   347.0,0.000055,-0.000173,-0.017755,-0.000203,   8.482
   347.2,0.000056,-0.000176,-0.017795,-0.000217,   8.483
   347.4,0.000048,-0.000179,-0.017411,-0.000254,   8.484
   347.6,0.000048,-0.000172,-0.016580,-0.000254,   8.483
   347.8,0.000053,-0.000172,-0.016254,-0.000217,   8.482
   348.0,0.000045,-0.000174,-0.015968,-0.000254,   8.482
   348.2,0.000045,-0.000176,-0.015699,-0.000254,   8.485
   348.4,0.000053,-0.000176,-0.015554,-0.000217,   8.483
   348.6,0.000045,-0.000176,-0.015521,-0.000254,   8.488
   348.8,0.000048,-0.000171,-0.015578,-0.000254,   8.483
   349.0,0.000056,-0.000173,-0.015453,-0.000217,   8.485
   349.2,0.000048,-0.000174,-0.015312,-0.000254,   8.482
   349.4,0.000048,-0.000177,-0.015142,-0.000217,   8.484
   349.6,0.000053,-0.000175,-0.015089,-0.000179,   8.487
   349.8,0.000045,-0.000172,-0.015089,-0.000217,   8.484
   350.0,0.000045,-0.000175,-0.015146,-0.000179,   8.484
   350.2,0.000053,-0.000172,-0.015179,-0.000179,   8.477
   350.4,0.000053,-0.000175,-0.015223,-0.000217,   8.483
   350.6,0.000045,-0.000176,-0.015280,-0.000179,   8.487
   350.8,0.000053,-0.000171,-0.015248,-0.000179,   8.482
   351.0,0.000053,-0.000174,-0.015163,-0.000217,   8.487
   351.2,0.000053,-0.000179,-0.015034,-0.000217,   8.488
   351.4,0.000056,-0.000176,-0.014969,-0.000217,   8.486
   351.6,0.000053,-0.000179,-0.014936,-0.000254,   8.485
   351.8,0.000045,-0.000176,-0.014904,-0.000254,   8.487
   352.0,0.000045,-0.000171,-0.014872,-0.000217,   8.486
   352.2,0.000053,-0.000171,-0.014852,-0.000254,   8.481
   352.4,0.000045,-0.000172,-0.014859,-0.000254,   8.484
   352.6,0.000048,-0.000173,-0.014892,-0.000217,   8.484
   352.8,0.000048,-0.000178,-0.014957,-0.000254,   8.483
   353.0,0.000041,-0.000175,-0.015054,-0.000254,   8.484
   353.2,0.000051,-0.000171,-0.015041,-0.000217,   8.483
   353.4,0.000048,-0.000177,-0.015009,-0.000254,   8.480
   353.6,0.000041,-0.000177,-0.014957,-0.000254,   8.479
   353.8,0.000051,-0.000172,-0.014944,-0.000217,   8.486
   354.0,0.000048,-0.000178,-0.014944,-0.000268,   8.485
   354.2,0.000041,-0.000172,-0.014957,-0.000268,   8.487
   354.4,0.000051,-0.000167,-0.014936,-0.000230,   8.486
   354.6,0.000048,-0.000171,-0.014924,-0.000230,   8.483
   354.8,0.000041,-0.000172,-0.014904,-0.000268,   8.483
   355.0,0.000051,-0.000170,-0.014892,-0.000230,   8.482
   355.2,0.000048,-0.000168,-0.014879,-0.000230,   8.485
   355.4,0.000041,-0.000171,-0.014872,-0.000268,   8.485
   355.6,0.000044,-0.000169,-0.014872,-0.000230,   8.485
   355.8,0.000041,-0.000170,-0.014859,-0.000230,   8.484
   356.0,0.000033,-0.000165,-0.014879,-0.000254,   8.484
   356.2,0.000037,-0.000168,-0.014912,-0.000254,   8.483
   356.4,0.000044,-0.000168,-0.014855,-0.000217,   8.486
   356.6,0.000037,-0.000165,-0.014770,-0.000241,   8.484
   356.8,0.000044,-0.000167,-0.014693,-0.000241,   8.487
   357.0,0.000048,-0.000167,-0.014668,-0.000217,   8.485
   357.2,0.000041,-0.000167,-0.014640,-0.000254,   8.487
   357.4,0.000051,-0.000172,-0.014693,-0.000254,   8.489
   357.6,0.000051,-0.000170,-0.014903,-0.000217,   8.488
   357.8,0.000044,-0.000170,-0.015210,-0.000254,   8.491
   358.0,0.000051,-0.000173,-0.015634,-0.000254,   8.486
   358.2,0.000059,-0.000168,-0.015674,-0.000217,   8.488
   358.4,0.000051,-0.000168,-0.015569,-0.000254,   8.485
   358.6,0.000055,-0.000168,-0.015319,-0.000254,   8.486
   358.8,0.000062,-0.000167,-0.015170,-0.000217,   8.487
   359.0,0.000055,-0.000170,-0.014968,-0.000254,   8.486
   359.2,0.000058,-0.000165,-0.014745,-0.000254,   8.482
   359.4,0.000062,-0.000166,-0.014705,-0.000217,   8.486
   359.6,0.000062,-0.000166,-0.014790,-0.000254,   8.486
   359.8,0.000058,-0.000165,-0.014932,-0.000254,   8.486
   360.0,0.000062,-0.000159,-0.014932,-0.000217,   8.486
   360.2,0.000062,-0.000159,-0.014912,-0.000254,   8.484
   360.4,0.000065,-0.000164,-0.014879,-0.000241,   8.487
   360.6,0.000062,-0.000164,-0.014827,-0.000203,   8.486
   360.8,0.000062,-0.000168,-0.014795,-0.000241,   8.484
   361.0,0.000058,-0.000165,-0.014762,-0.000228,   8.486
   361.2,0.000058,-0.000166,-0.015012,-0.000203,   8.486
   361.4,0.000065,-0.000169,-0.015412,-0.000241,   8.485
   361.6,0.000061,-0.000166,-0.015960,-0.000228,   8.487
   361.8,0.000061,-0.000166,-0.015968,-0.000203,   8.484
   362.0,0.000068,-0.000169,-0.015767,-0.000241,   8.487
   362.2,0.000067,-0.000166,-0.015347,-0.000228,   8.487
   362.4,0.000070,-0.000166,-0.015242,-0.000203,   8.482
   362.6,0.000081,-0.000169,-0.015198,-0.000241,   8.486
   362.8,0.000079,-0.000166,-0.015182,-0.000228,   8.487
   363.0,0.000082,-0.000166,-0.015299,-0.000203,   8.486
   363.2,0.000085,-0.000167,-0.015509,-0.000241,   8.488
   363.4,0.000081,-0.000159,-0.015823,-0.000228,   8.488
   363.6,0.000092,-0.000154,-0.015876,-0.000203,   8.483
   363.8,0.000098,-0.000155,-0.015843,-0.000203,   8.487
   364.0,0.000097,-0.000149,-0.015759,-0.000241,   8.486
   364.2,0.000107,-0.000149,-0.015582,-0.000203,   8.484
   364.4,0.000113,-0.000147,-0.015477,-0.000203,   8.490
   364.6,0.000112,-0.000143,-0.015412,-0.000228,   8.486
   364.8,0.000123,-0.000139,-0.015315,-0.000190,   8.486
   365.0,0.000123,-0.000139,-0.015270,-0.000190,   8.483
   365.2,0.000118,-0.000128,-0.015230,-0.000228,   8.483
   365.4,0.000126,-0.000125,-0.015230,-0.000214,   8.488
   365.6,0.000130,-0.000125,-0.015198,-0.000177,   8.486
   365.8,0.000126,-0.000117,-0.015165,-0.000201,   8.491
   366.0,0.000126,-0.000123,-0.015133,-0.000201,   8.485
   366.2,0.000126,-0.000115,-0.015141,-0.000163,   8.488
   366.4,0.000118,-0.000116,-0.015153,-0.000187,   8.486
   366.6,0.000126,-0.000119,-0.015198,-0.000187,   8.487
   366.8,0.000133,-0.000116,-0.015173,-0.000150,   8.488
   367.0,0.000126,-0.000117,-0.015088,-0.000174,   8.486
   367.2,0.000126,-0.000112,-0.014983,-0.000174,   8.486
   367.4,0.000133,-0.000106,-0.015016,-0.000136,   8.490
   367.6,0.000133,-0.000112,-0.015093,-0.000161,   8.486
   367.8,0.000126,-0.000106,-0.015275,-0.000174,   8.484
   368.0,0.000133,-0.000109,-0.015222,-0.000136,   8.486
   368.2,0.000127,-0.000112,-0.015133,-0.000161,   8.484
   368.4,0.000127,-0.000107,-0.014971,-0.000174,   8.486
   368.6,0.000120,-0.000105,-0.014939,-0.000136,   8.487
   368.8,0.000116,-0.000108,-0.014979,-0.000161,   8.486
   369.0,0.000109,-0.000110,-0.015036,-0.000174,   8.489
   369.2,0.000113,-0.000109,-0.015036,-0.000174,   8.489
   369.4,0.000104,-0.000109,-0.015016,-0.000161,   8.487
   369.6,0.000094,-0.000114,-0.014988,-0.000174,   8.484
   369.8,0.000101,-0.000110,-0.014955,-0.000174,   8.486
   370.0,0.000095,-0.000118,-0.014911,-0.000161,   8.485
   370.2,0.000087,-0.000118,-0.014846,-0.000174,   8.487
   370.4,0.000089,-0.000118,-0.014878,-0.000187,   8.488
   370.6,0.000093,-0.000126,-0.014943,-0.000174,   8.487
   370.8,0.000085,-0.000126,-0.015033,-0.000174,   8.485
   371.0,0.000085,-0.000126,-0.015105,-0.000187,   8.486
   371.2,0.000090,-0.000126,-0.015170,-0.000174,   8.486
   371.4,0.000082,-0.000131,-0.015207,-0.000187,   8.484
   371.6,0.000082,-0.000129,-0.015187,-0.000201,   8.487
   371.8,0.000084,-0.000132,-0.015174,-0.000201,   8.487
   372.0,0.000076,-0.000133,-0.015134,-0.000201,   8.487
   372.2,0.000079,-0.000136,-0.015114,-0.000214,   8.486
   372.4,0.000084,-0.000144,-0.015082,-0.000214,   8.487
   372.6,0.000073,-0.000143,-0.015082,-0.000214,   8.482
   372.8,0.000073,-0.000145,-0.015082,-0.000252,   8.485
   373.0,0.000077,-0.000153,-0.015049,-0.000214,   8.485
   373.2,0.000067,-0.000150,-0.015017,-0.000252,   8.483
   373.4,0.000067,-0.000147,-0.014964,-0.000252,   8.483
   373.6,0.000077,-0.000150,-0.014940,-0.000214,   8.485
   373.8,0.000070,-0.000147,-0.014907,-0.000214,   8.483
   374.0,0.000067,-0.000151,-0.014875,-0.000214,   8.484
   374.2,0.000071,-0.000153,-0.014895,-0.000228,   8.486
   374.4,0.000067,-0.000159,-0.014948,-0.000228,   8.488
   374.6,0.000064,-0.000158,-0.015005,-0.000228,   8.485
   374.8,0.000068,-0.000157,-0.015037,-0.000228,   8.484
   375.0,0.000061,-0.000160,-0.015062,-0.000228,   8.488
   375.2,0.000061,-0.000163,-0.015134,-0.000228,   8.485
   375.4,0.000062,-0.000159,-0.015142,-0.000228,   8.483
   375.6,0.000055,-0.000162,-0.015110,-0.000228,   8.486
   375.8,0.000062,-0.000162,-0.015057,-0.000228,   8.489
   376.0,0.000066,-0.000159,-0.015012,-0.000228,   8.489
   376.2,0.000066,-0.000164,-0.014968,-0.000228,   8.487
   376.4,0.000066,-0.000161,-0.014875,-0.000228,   8.488
   376.6,0.000071,-0.000163,-0.014855,-0.000228,   8.484
   376.8,0.000071,-0.000166,-0.014867,-0.000228,   8.486
   377.0,0.000071,-0.000160,-0.014896,-0.000228,   8.486
   377.2,0.000063,-0.000160,-0.014896,-0.000228,   8.489
   377.4,0.000063,-0.000163,-0.014916,-0.000228,   8.491
   377.6,0.000066,-0.000160,-0.014977,-0.000228,   8.490
   377.8,0.000063,-0.000160,-0.014964,-0.000241,   8.490
   378.0,0.000056,-0.000166,-0.014932,-0.000241,   8.489
   378.2,0.000048,-0.000165,-0.014892,-0.000241,   8.492
   378.4,0.000051,-0.000170,-0.014900,-0.000254,   8.493
   378.6,0.000056,-0.000178,-0.014912,-0.000254,   8.484
   378.8,0.000048,-0.000167,-0.014944,-0.000254,   8.492
   379.0,0.000051,-0.000163,-0.014932,-0.000254,   8.487
   379.2,0.000059,-0.000166,-0.014892,-0.000254,   8.488
   379.4,0.000051,-0.000165,-0.014879,-0.000254,   8.486
   379.6,0.000051,-0.000161,-0.014859,-0.000254,   8.486
   379.8,0.000059,-0.000159,-0.014859,-0.000254,   8.486
   380.0,0.000051,-0.000165,-0.014859,-0.000254,   8.486
   380.2,0.000059,-0.000160,-0.014912,-0.000254,   8.486
   380.4,0.000066,-0.000161,-0.015009,-0.000254,   8.488
   380.6,0.000059,-0.000161,-0.015139,-0.000254,   8.488
   380.8,0.000059,-0.000159,-0.015106,-0.000254,   8.489
   381.0,0.000059,-0.000162,-0.015021,-0.000254,   8.491
   381.2,0.000051,-0.000162,-0.014872,-0.000254,   8.489
   381.4,0.000051,-0.000164,-0.014669,-0.000279,   8.489
   381.6,0.000059,-0.000172,-0.014787,-0.000241,   8.484
   381.8,0.000051,-0.000172,-0.015037,-0.000265,   8.491
   382.0,0.000055,-0.000169,-0.015364,-0.000265,   8.487
   382.2,0.000062,-0.000174,-0.015404,-0.000228,   8.487
   382.4,0.000055,-0.000177,-0.015352,-0.000228,   8.485
   382.6,0.000058,-0.000171,-0.015166,-0.000228,   8.486
   382.8,0.000062,-0.000174,-0.015082,-0.000228,   8.488
   383.0,0.000055,-0.000174,-0.015005,-0.000228,   8.485
   383.2,0.000058,-0.000167,-0.014920,-0.000228,   8.484
   383.4,0.000055,-0.000165,-0.014879,-0.000228,   8.487
   383.6,0.000047,-0.000166,-0.014904,-0.000228,   8.489
   383.8,0.000058,-0.000165,-0.014989,-0.000228,   8.486
   384.0,0.000055,-0.000163,-0.014944,-0.000241,   8.493
   384.2,0.000047,-0.000163,-0.014879,-0.000241,   8.485
   384.4,0.000058,-0.000159,-0.014774,-0.000228,   8.491
   384.6,0.000055,-0.000158,-0.014742,-0.000241,   8.489
   384.8,0.000047,-0.000160,-0.014750,-0.000241,   8.487
   385.0,0.000058,-0.000152,-0.014754,-0.000228,   8.491
   385.2,0.000055,-0.000154,-0.014754,-0.000241,   8.487
   385.4,0.000055,-0.000162,-0.014774,-0.000254,   8.487
   385.6,0.000050,-0.000164,-0.014827,-0.000254,   8.492
   385.8,0.000055,-0.000167,-0.015227,-0.000230,   8.486
   386.0,0.000055,-0.000172,-0.015816,-0.000281,   8.487
   386.2,0.000062,-0.000175,-0.016632,-0.000281,   8.492
   386.4,0.000068,-0.000170,-0.016657,-0.000230,   8.488
   386.6,0.000066,-0.000174,-0.016436,-0.000254,   8.488
   386.8,0.000069,-0.000174,-0.015925,-0.000254,   8.490
   387.0,0.000061,-0.000170,-0.015748,-0.000217,   8.492
   387.2,0.000068,-0.000176,-0.015610,-0.000241,   8.489
   387.4,0.000063,-0.000176,-0.015526,-0.000241,   8.486
   387.6,0.000066,-0.000170,-0.015376,-0.000217,   8.487
   387.8,0.000066,-0.000178,-0.015207,-0.000254,   8.490
   388.0,0.000059,-0.000175,-0.015037,-0.000254,   8.489
   388.2,0.000066,-0.000169,-0.015267,-0.000217,   8.489
   388.4,0.000066,-0.000171,-0.015719,-0.000254,   8.491
   388.6,0.000059,-0.000171,-0.016371,-0.000254,   8.494
   388.8,0.000066,-0.000159,-0.016391,-0.000217,   8.491
   389.0,0.000066,-0.000159,-0.016214,-0.000254,   8.485
   389.2,0.000059,-0.000164,-0.015820,-0.000241,   8.491
   389.4,0.000066,-0.000161,-0.015618,-0.000203,   8.487
   389.6,0.000066,-0.000159,-0.015457,-0.000241,   8.489
   389.8,0.000059,-0.000165,-0.015247,-0.000228,   8.489
   390.0,0.000059,-0.000163,-0.015162,-0.000203,   8.489
   390.2,0.000059,-0.000163,-0.015089,-0.000203,   8.488
   390.4,0.000051,-0.000164,-0.015102,-0.000241,   8.484
   390.6,0.000051,-0.000162,-0.015166,-0.000203,   8.488
   390.8,0.000059,-0.000165,-0.015271,-0.000203,   8.485
   391.0,0.000051,-0.000163,-0.015429,-0.000228,   8.492
   391.2,0.000051,-0.000165,-0.015638,-0.000203,   8.489
   391.4,0.000051,-0.000173,-0.015618,-0.000203,   8.487
   391.6,0.000044,-0.000170,-0.015546,-0.000241,   8.489
   391.8,0.000055,-0.000167,-0.015381,-0.000228,   8.489
   392.0,0.000055,-0.000174,-0.015308,-0.000203,   8.488
   392.2,0.000050,-0.000174,-0.015268,-0.000241,   8.488
   392.4,0.000058,-0.000167,-0.015268,-0.000228,   8.488
   392.6,0.000058,-0.000167,-0.015203,-0.000203,   8.491
   392.8,0.000053,-0.000167,-0.015139,-0.000241,   8.491
   393.0,0.000058,-0.000172,-0.015066,-0.000228,   8.486
   393.2,0.000058,-0.000169,-0.015034,-0.000203,   8.490
   393.4,0.000050,-0.000172,-0.015062,-0.000241,   8.491
   393.6,0.000058,-0.000175,-0.015066,-0.000228,   8.487
   393.8,0.000055,-0.000170,-0.015236,-0.000241,   8.488
   394.0,0.000050,-0.000174,-0.015526,-0.000241,   8.487
   394.2,0.000058,-0.000170,-0.015885,-0.000228,   8.486
   394.4,0.000058,-0.000170,-0.015860,-0.000241,   8.483
   394.6,0.000058,-0.000173,-0.015694,-0.000241,   8.483
   394.8,0.000053,-0.000165,-0.015383,-0.000228,   8.489
   395.0,0.000061,-0.000160,-0.016000,-0.000241,   8.485
   395.2,0.000058,-0.000163,-0.017045,-0.000241,   8.486
   395.4,0.000064,-0.000163,-0.018475,-0.000228,   8.487
   395.6,0.000064,-0.000161,-0.018475,-0.000241,   8.487
   395.8,0.000064,-0.000164,-0.017959,-0.000241,   8.488
   396.0,0.000059,-0.000161,-0.016941,-0.000228,   8.485
   396.2,0.000064,-0.000158,-0.016523,-0.000228,   8.485
   396.4,0.000064,-0.000163,-0.016198,-0.000228,   8.489
   396.6,0.000059,-0.000160,-0.015876,-0.000228,   8.489
   396.8,0.000061,-0.000159,-0.015686,-0.000228,   8.487
   397.0,0.000065,-0.000165,-0.015606,-0.000228,   8.485
   397.2,0.000061,-0.000165,-0.015610,-0.000228,   8.492
   397.4,0.000061,-0.000159,-0.015493,-0.000228,   8.489
   397.6,0.000068,-0.000163,-0.015356,-0.000228,   8.488
   397.8,0.000064,-0.000163,-0.015199,-0.000228,   8.488
   398.0,0.000071,-0.000155,-0.015171,-0.000228,   8.487
   398.2,0.000079,-0.000160,-0.015264,-0.000228,   8.487
   398.4,0.000077,-0.000163,-0.015373,-0.000228,   8.488
   398.6,0.000088,-0.000159,-0.015353,-0.000228,   8.490
   398.8,0.000091,-0.000165,-0.015296,-0.000228,   8.489
   399.0,0.000090,-0.000163,-0.015199,-0.000214,   8.487
   399.2,0.000103,-0.000163,-0.015069,-0.000265,   8.488
   399.4,0.000103,-0.000166,-0.015424,-0.000228,   8.489
   399.6,0.000102,-0.000161,-0.015960,-0.000265,   8.491
   399.8,0.000105,-0.000156,-0.016685,-0.000265,   8.488
   400.0,0.000108,-0.000157,-0.016672,-0.000228,   8.481
   400.2,0.000104,-0.000149,-0.016407,-0.000228,   8.483
   400.4,0.000107,-0.000139,-0.015859,-0.000228,   8.485
   400.6,0.000115,-0.000139,-0.015710,-0.000228,   8.488
   400.8,0.000110,-0.000134,-0.015645,-0.000228,   8.486
   401.0,0.000110,-0.000131,-0.015609,-0.000228,   8.486
   401.2,0.000121,-0.000133,-0.015512,-0.000190,   8.486
   401.4,0.000113,-0.000128,-0.015395,-0.000228,   8.482
   401.6,0.000113,-0.000132,-0.015298,-0.000214,   8.485
   401.8,0.000118,-0.000124,-0.015274,-0.000177,   8.485
   402.0,0.000110,-0.000125,-0.015254,-0.000201,   8.488
   402.2,0.000113,-0.000122,-0.015298,-0.000201,   8.485
   402.4,0.000118,-0.000120,-0.015266,-0.000163,   8.484
   402.6,0.000113,-0.000124,-0.015193,-0.000187,   8.487
   402.8,0.000116,-0.000118,-0.015141,-0.000187,   8.484
   403.0,0.000124,-0.000118,-0.015076,-0.000150,   8.488
   403.2,0.000124,-0.000121,-0.014991,-0.000174,   8.487
   403.4,0.000121,-0.000113,-0.014934,-0.000174,   8.491
   403.6,0.000121,-0.000111,-0.014772,-0.000136,   8.488
   403.8,0.000125,-0.000109,-0.014582,-0.000161,   8.485
   404.0,0.000125,-0.000111,-0.014352,-0.000174,   8.488
   404.2,0.000119,-0.000110,-0.014339,-0.000136,   8.486
   404.4,0.000119,-0.000116,-0.014432,-0.000161,   8.489
   404.6,0.000108,-0.000119,-0.014615,-0.000174,   8.486
   404.8,0.000113,-0.000116,-0.014655,-0.000136,   8.486
   405.0,0.000107,-0.000124,-0.014655,-0.000161,   8.486
   405.2,0.000099,-0.000127,-0.014615,-0.000150,   8.487
   405.4,0.000100,-0.000124,-0.014647,-0.000126,   8.491
   405.6,0.000100,-0.000132,-0.014732,-0.000150,   8.487
   405.8,0.000093,-0.000134,-0.014821,-0.000163,   8.489
   406.0,0.000100,-0.000128,-0.014854,-0.000163,   8.491
   406.2,0.000097,-0.000131,-0.014906,-0.000187,   8.487
   406.4,0.000090,-0.000138,-0.014931,-0.000201,   8.481
   406.6,0.000097,-0.000134,-0.014919,-0.000163,   8.487
   406.8,0.000091,-0.000140,-0.014906,-0.000187,   8.488
   407.0,0.000084,-0.000145,-0.014846,-0.000201,   8.485
   407.2,0.000091,-0.000143,-0.014806,-0.000163,   8.485
   407.4,0.000088,-0.000146,-0.014781,-0.000163,   8.488
   407.6,0.000081,-0.000146,-0.014741,-0.000187,   8.485
   407.8,0.000081,-0.000143,-0.014688,-0.000163,   8.482
   408.0,0.000081,-0.000151,-0.014648,-0.000163,   8.484
   408.2,0.000070,-0.000147,-0.014628,-0.000187,   8.486
   408.4,0.000070,-0.000147,-0.014636,-0.000163,   8.486
   408.6,0.000074,-0.000149,-0.014644,-0.000163,   8.485
   408.8,0.000067,-0.000152,-0.014644,-0.000187,   8.487
   409.0,0.000064,-0.000151,-0.014676,-0.000201,   8.483
   409.2,0.000068,-0.000151,-0.014701,-0.000163,   8.480
   409.4,0.000064,-0.000154,-0.014773,-0.000201,   8.484
   409.6,0.000071,-0.000148,-0.014871,-0.000201,   8.486
   409.8,0.000076,-0.000148,-0.014915,-0.000177,   8.484
   410.0,0.000079,-0.000151,-0.014948,-0.000214,   8.483
   410.2,0.000076,-0.000154,-0.015000,-0.000201,   8.484
   410.4,0.000080,-0.000151,-0.015012,-0.000177,   8.482
   410.6,0.000076,-0.000146,-0.014992,-0.000214,   8.482
   410.8,0.000073,-0.000152,-0.015000,-0.000201,   8.484
   411.0,0.000073,-0.000146,-0.015020,-0.000177,   8.483
   411.2,0.000065,-0.000148,-0.015020,-0.000214,   8.480
   411.4,0.000069,-0.000151,-0.015053,-0.000201,   8.485
   411.6,0.000066,-0.000152,-0.015081,-0.000177,   8.487
   411.8,0.000059,-0.000156,-0.015093,-0.000214,   8.482
   412.0,0.000066,-0.000159,-0.015117,-0.000201,   8.483
   412.2,0.000066,-0.000159,-0.015053,-0.000177,   8.486
   412.4,0.000071,-0.000161,-0.014976,-0.000214,   8.485
   412.6,0.000071,-0.000164,-0.014871,-0.000177,   8.483
   412.8,0.000072,-0.000164,-0.014838,-0.000166,   8.483
   413.0,0.000073,-0.000169,-0.014846,-0.000203,   8.485
   413.2,0.000069,-0.000168,-0.014871,-0.000152,   8.485
   413.4,0.000069,-0.000161,-0.015101,-0.000166,   8.484
   413.6,0.000064,-0.000168,-0.015415,-0.000203,   8.483
   413.8,0.000060,-0.000168,-0.015819,-0.000190,   8.484
   414.0,0.000060,-0.000166,-0.015819,-0.000203,   8.480
   414.2,0.000060,-0.000166,-0.015637,-0.000241,   8.479
   414.4,0.000056,-0.000168,-0.015283,-0.000228,   8.483
   414.6,0.000063,-0.000168,-0.015158,-0.000203,   8.483
   414.8,0.000060,-0.000168,-0.015073,-0.000241,   8.484
   415.0,0.000053,-0.000170,-0.015053,-0.000228,   8.483
   415.2,0.000060,-0.000164,-0.015000,-0.000203,   8.483
   415.4,0.000060,-0.000161,-0.014980,-0.000241,   8.485
   415.6,0.000050,-0.000164,-0.015000,-0.000228,   8.483
   415.8,0.000057,-0.000160,-0.015033,-0.000203,   8.484
   416.0,0.000057,-0.000163,-0.015077,-0.000203,   8.483
   416.2,0.000046,-0.000163,-0.015187,-0.000241,   8.485
   416.4,0.000046,-0.000166,-0.015187,-0.000203,   8.485
   416.6,0.000050,-0.000167,-0.015174,-0.000203,   8.482
   416.8,0.000045,-0.000164,-0.015102,-0.000228,   8.480
   417.0,0.000045,-0.000162,-0.015025,-0.000203,   8.480
   417.2,0.000053,-0.000165,-0.014992,-0.000203,   8.481
   417.4,0.000045,-0.000165,-0.014980,-0.000241,   8.483
   417.6,0.000045,-0.000164,-0.014940,-0.000228,   8.484
   417.8,0.000050,-0.000170,-0.015045,-0.000203,   8.482
   418.0,0.000039,-0.000170,-0.015242,-0.000241,   8.482
   418.2,0.000043,-0.000164,-0.015525,-0.000228,   8.484
   418.4,0.000048,-0.000167,-0.015500,-0.000203,   8.484
   418.6,0.000043,-0.000161,-0.015403,-0.000241,   8.480
   418.8,0.000051,-0.000176,-0.015193,-0.000228,   8.483
   419.0,0.000051,-0.000170,-0.015084,-0.000203,   8.482
   419.2,0.000046,-0.000173,-0.014979,-0.000241,   8.487
   419.4,0.000051,-0.000173,-0.014886,-0.000228,   8.487
   419.6,0.000051,-0.000171,-0.014926,-0.000203,   8.485
   419.8,0.000046,-0.000173,-0.015016,-0.000241,   8.483
   420.0,0.000046,-0.000172,-0.015170,-0.000228,   8.486
   420.2,0.000046,-0.000166,-0.015190,-0.000203,   8.486
   420.4,0.000050,-0.000169,-0.015162,-0.000241,   8.486
   420.6,0.000042,-0.000175,-0.015089,-0.000241,   8.485
   420.8,0.000053,-0.000174,-0.015077,-0.000217,   8.487
   421.0,0.000050,-0.000174,-0.015077,-0.000254,   8.485
   421.2,0.000050,-0.000174,-0.015077,-0.000254,   8.484
   421.4,0.000042,-0.000174,-0.015065,-0.000217,   8.485
   421.6,0.000042,-0.000177,-0.015065,-0.000254,   8.482
   421.8,0.000035,-0.000177,-0.015085,-0.000254,   8.485
   422.0,0.000042,-0.000171,-0.015085,-0.000217,   8.483
   422.2,0.000042,-0.000174,-0.015117,-0.000254,   8.482
   422.4,0.000035,-0.000177,-0.015162,-0.000254,   8.482
   422.6,0.000042,-0.000177,-0.015182,-0.000217,   8.483
   422.8,0.000039,-0.000182,-0.015182,-0.000254,   8.481
   423.0,0.000035,-0.000179,-0.015194,-0.000241,   8.480
   423.2,0.000042,-0.000179,-0.015150,-0.000203,   8.486
   423.4,0.000042,-0.000182,-0.015085,-0.000241,   8.483
   423.6,0.000038,-0.000182,-0.015008,-0.000228,   8.479
   423.8,0.000045,-0.000178,-0.014935,-0.000203,   8.483
   424.0,0.000045,-0.000183,-0.014891,-0.000241,   8.484
   424.2,0.000038,-0.000183,-0.014871,-0.000228,   8.486
   424.4,0.000045,-0.000178,-0.014858,-0.000241,   8.485
   424.6,0.000039,-0.000182,-0.014846,-0.000241,   8.482
   424.8,0.000032,-0.000183,-0.014846,-0.000279,   8.487
   425.0,0.000036,-0.000176,-0.014846,-0.000279,   8.483
   425.2,0.000043,-0.000175,-0.015653,-0.000241,   8.483
   425.4,0.000043,-0.000180,-0.016764,-0.000265,   8.483
   425.6,0.000052,-0.000171,-0.018223,-0.000279,   8.483
   425.8,0.000065,-0.000174,-0.018223,-0.000241,   8.481
   426.0,0.000068,-0.000178,-0.017710,-0.000241,   8.480
   426.2,0.000060,-0.000179,-0.016615,-0.000228,   8.479
   426.4,0.000058,-0.000178,-0.016281,-0.000241,   8.481
   426.6,0.000054,-0.000183,-0.016032,-0.000241,   8.483
   426.8,0.000054,-0.000175,-0.015927,-0.000228,   8.478
   427.0,0.000054,-0.000172,-0.015746,-0.000241,   8.480
   427.2,0.000050,-0.000172,-0.015556,-0.000241,   8.480
   427.4,0.000050,-0.000178,-0.015379,-0.000228,   8.482
   427.6,0.000046,-0.000175,-0.015306,-0.000241,   8.481
   427.8,0.000042,-0.000175,-0.015286,-0.000241,   8.485
   428.0,0.000042,-0.000180,-0.015323,-0.000228,   8.481
   428.2,0.000046,-0.000175,-0.015270,-0.000241,   8.482
   428.4,0.000042,-0.000175,-0.015218,-0.000241,   8.484
   428.6,0.000042,-0.000180,-0.015186,-0.000228,   8.482
   428.8,0.000046,-0.000175,-0.015218,-0.000228,   8.483
   429.0,0.000042,-0.000178,-0.015255,-0.000228,   8.480
   429.2,0.000042,-0.000179,-0.015352,-0.000228,   8.478
   429.4,0.000050,-0.000171,-0.015457,-0.000228,   8.478
   429.6,0.000053,-0.000174,-0.015614,-0.000228,   8.479
   429.8,0.000042,-0.000177,-0.015791,-0.000228,   8.483
   430.0,0.000053,-0.000171,-0.015759,-0.000228,   8.478
   430.2,0.000050,-0.000177,-0.015642,-0.000228,   8.479
   430.4,0.000050,-0.000174,-0.015464,-0.000228,   8.486
   430.6,0.000053,-0.000173,-0.015347,-0.000203,   8.482
   430.8,0.000053,-0.000179,-0.015210,-0.000241,   8.484
   431.0,0.000048,-0.000173,-0.015101,-0.000228,   8.483
   431.2,0.000051,-0.000175,-0.015004,-0.000203,   8.484
   431.4,0.000056,-0.000179,-0.014919,-0.000241,   8.482
   431.6,0.000048,-0.000176,-0.014866,-0.000228,   8.481
   431.8,0.000051,-0.000171,-0.014821,-0.000203,   8.483
   432.0,0.000059,-0.000174,-0.014769,-0.000241,   8.483
   432.2,0.000051,-0.000174,-0.014769,-0.000228,   8.481
   432.4,0.000048,-0.000169,-0.014736,-0.000203,   8.483
   432.6,0.000053,-0.000172,-0.014736,-0.000241,   8.486
   432.8,0.000045,-0.000172,-0.014736,-0.000228,   8.483
   433.0,0.000048,-0.000169,-0.014894,-0.000203,   8.481
   433.2,0.000059,-0.000170,-0.015116,-0.000241,   8.479
   433.4,0.000055,-0.000173,-0.015456,-0.000190,   8.482
   433.6,0.000055,-0.000176,-0.015520,-0.000166,   8.479
   433.8,0.000065,-0.000178,-0.015480,-0.000166,   8.483
   434.0,0.000061,-0.000174,-0.015355,-0.000203,   8.478
   434.2,0.000064,-0.000175,-0.015283,-0.000203,   8.483
   434.4,0.000074,-0.000177,-0.015238,-0.000203,   8.484
   434.6,0.000073,-0.000176,-0.015141,-0.000228,   8.479
   434.8,0.000076,-0.000169,-0.015056,-0.000203,   8.480
   435.0,0.000079,-0.000172,-0.015044,-0.000203,   8.479
   435.2,0.000075,-0.000168,-0.015044,-0.000241,   8.483
   435.4,0.000085,-0.000167,-0.015076,-0.000228,   8.483
   435.6,0.000090,-0.000168,-0.015088,-0.000203,   8.483
   435.8,0.000085,-0.000162,-0.015141,-0.000241,   8.483
   436.0,0.000092,-0.000158,-0.015226,-0.000228,   8.480
   436.2,0.000102,-0.000159,-0.015278,-0.000190,   8.479
   436.4,0.000101,-0.000165,-0.015355,-0.000228,   8.485
   436.6,0.000101,-0.000162,-0.015480,-0.000214,   8.485
   436.8,0.000108,-0.000170,-0.015605,-0.000177,   8.481
   437.0,0.000104,-0.000173,-0.015750,-0.000201,   8.478
   437.2,0.000107,-0.000163,-0.015959,-0.000201,   8.478
   437.4,0.000104,-0.000153,-0.015979,-0.000163,   8.481
   437.6,0.000097,-0.000145,-0.015895,-0.000187,   8.483
   437.8,0.000107,-0.000143,-0.015778,-0.000187,   8.481
   438.0,0.000104,-0.000140,-0.015733,-0.000150,   8.483
   438.2,0.000094,-0.000132,-0.015653,-0.000174,   8.478
   438.4,0.000101,-0.000130,-0.015621,-0.000174,   8.482
   438.6,0.000098,-0.000135,-0.015818,-0.000150,   8.480
   438.8,0.000098,-0.000133,-0.016152,-0.000174,   8.481
   439.0,0.000084,-0.000131,-0.016623,-0.000174,   8.480
   439.2,0.000099,-0.000130,-0.016603,-0.000136,   8.479
   439.4,0.000093,-0.000135,-0.016414,-0.000161,   8.483
   439.6,0.000093,-0.000135,-0.016068,-0.000174,   8.480
   439.8,0.000090,-0.000132,-0.015931,-0.000150,   8.483
   440.0,0.000087,-0.000140,-0.015806,-0.000174,   8.481
   440.2,0.000079,-0.000140,-0.015701,-0.000174,   8.479
   440.4,0.000079,-0.000137,-0.015628,-0.000150,   8.481
   440.6,0.000084,-0.000145,-0.015596,-0.000174,   8.478
   440.8,0.000073,-0.000144,-0.015588,-0.000174,   8.482
   441.0,0.000073,-0.000140,-0.015476,-0.000187,   8.484
   441.2,0.000074,-0.000146,-0.015379,-0.000174,   8.481
   441.4,0.000067,-0.000146,-0.015282,-0.000174,   8.483
   441.6,0.000067,-0.000148,-0.015241,-0.000187,   8.480
   441.8,0.000074,-0.000156,-0.015266,-0.000174,   8.484
   442.0,0.000070,-0.000155,-0.015351,-0.000174,   8.480
   442.2,0.000067,-0.000155,-0.015588,-0.000187,   8.485
   442.4,0.000068,-0.000163,-0.015895,-0.000174,   8.481
   442.6,0.000064,-0.000165,-0.016313,-0.000174,   8.481
   442.8,0.000061,-0.000159,-0.016333,-0.000187,   8.480
   443.0,0.000065,-0.000163,-0.016209,-0.000174,   8.480
   443.2,0.000058,-0.000163,-0.015907,-0.000187,   8.480
   443.4,0.000055,-0.000155,-0.015919,-0.000201,   8.478
   443.6,0.000059,-0.000158,-0.016004,-0.000201,   8.477
   443.8,0.000051,-0.000161,-0.016181,-0.000201,   8.480
   444.0,0.000051,-0.000159,-0.016462,-0.000238,   8.480
   444.2,0.000056,-0.000166,-0.016358,-0.000214,   8.480
   444.4,0.000048,-0.000163,-0.016189,-0.000252,   8.479
   444.6,0.000048,-0.000161,-0.015919,-0.000252,   8.479
   444.8,0.000053,-0.000169,-0.016068,-0.000214,   8.476
   445.0,0.000045,-0.000166,-0.016402,-0.000214,   8.478
   445.2,0.000045,-0.000168,-0.016945,-0.000201,   8.478
   445.4,0.000053,-0.000171,-0.016897,-0.000214,   8.481
   445.6,0.000042,-0.000169,-0.016720,-0.000214,   8.481
   445.8,0.000042,-0.000174,-0.016354,-0.000201,   8.481
   446.0,0.000050,-0.000174,-0.016113,-0.000214,   8.481
   446.2,0.000039,-0.000180,-0.015879,-0.000214,   8.479
   446.4,0.000039,-0.000171,-0.015645,-0.000214,   8.482
   446.6,0.000050,-0.000168,-0.015516,-0.000228,   8.480
   446.8,0.000042,-0.000173,-0.015411,-0.000228,   8.482
   447.0,0.000042,-0.000172,-0.015383,-0.000228,   8.479
   447.2,0.000046,-0.000170,-0.015286,-0.000228,   8.480
   447.4,0.000042,-0.000173,-0.015189,-0.000228,   8.479
   447.6,0.000042,-0.000174,-0.015084,-0.000228,   8.479
   447.8,0.000046,-0.000175,-0.015064,-0.000228,   8.483
   448.0,0.000046,-0.000179,-0.015116,-0.000228,   8.477
   448.2,0.000050,-0.000173,-0.015221,-0.000228,   8.478
   448.4,0.000050,-0.000175,-0.015234,-0.000228,   8.480
   448.6,0.000054,-0.000179,-0.015266,-0.000228,   8.479
   448.8,0.000057,-0.000176,-0.015278,-0.000228,   8.479
   449.0,0.000054,-0.000179,-0.015286,-0.000228,   8.481
   449.2,0.000043,-0.000180,-0.015298,-0.000228,   8.480
   449.4,0.000039,-0.000178,-0.015311,-0.000228,   8.479
   449.6,0.000036,-0.000181,-0.015343,-0.000228,   8.479
   449.8,0.000040,-0.000183,-0.015388,-0.000228,   8.476
   450.0,0.000036,-0.000177,-0.015452,-0.000228,   8.481
   450.2,0.000036,-0.000175,-0.015464,-0.000228,   8.479
   450.4,0.000043,-0.000183,-0.015464,-0.000228,   8.479
   450.6,0.000039,-0.000180,-0.015452,-0.000228,   8.481
   450.8,0.000036,-0.000180,-0.015388,-0.000228,   8.477
   451.0,0.000040,-0.000186,-0.015311,-0.000228,   8.479
   451.2,0.000036,-0.000186,-0.015193,-0.000228,   8.479
   451.4,0.000033,-0.000191,-0.015189,-0.000228,   8.480
   451.6,0.000030,-0.000194,-0.015201,-0.000228,   8.478
   451.8,0.000025,-0.000186,-0.015258,-0.000228,   8.480
   452.0,0.000030,-0.000182,-0.015286,-0.000203,   8.481
   452.2,0.000030,-0.000185,-0.015278,-0.000241,   8.477
   452.4,0.000025,-0.000187,-0.015290,-0.000228,   8.482
   452.6,0.000030,-0.000187,-0.015258,-0.000190,   8.477
   452.8,0.000030,-0.000192,-0.015181,-0.000177,   8.477
   453.0,0.000025,-0.000194,-0.015108,-0.000214,   8.480
   453.2,0.000030,-0.000189,-0.014991,-0.000214,   8.480
   453.4,0.000030,-0.000192,-0.015536,-0.000228,   8.478
   453.6,0.000025,-0.000190,-0.016341,-0.000265,   8.481
   453.8,0.000030,-0.000181,-0.017358,-0.000265,   8.477
   454.0,0.000030,-0.000182,-0.017514,-0.000228,   8.477
   454.2,0.000025,-0.000182,-0.017378,-0.000228,   8.482
   454.4,0.000030,-0.000182,-0.016920,-0.000228,   8.480
   454.6,0.000037,-0.000185,-0.016712,-0.000228,   8.481
   454.8,0.000033,-0.000182,-0.016470,-0.000228,   8.483
   455.0,0.000033,-0.000182,-0.016181,-0.000228,   8.479
   455.2,0.000040,-0.000187,-0.015992,-0.000228,   8.479
   455.4,0.000036,-0.000179,-0.015835,-0.000228,   8.478
   455.6,0.000036,-0.000178,-0.015690,-0.000228,   8.479
   455.8,0.000040,-0.000178,-0.015553,-0.000228,   8.481
   456.0,0.000036,-0.000175,-0.015456,-0.000228,   8.478
   456.2,0.000036,-0.000175,-0.015363,-0.000228,   8.477
   456.4,0.000043,-0.000173,-0.015311,-0.000203,   8.482
   456.6,0.000039,-0.000176,-0.015318,-0.000241,   8.480
   456.8,0.000036,-0.000173,-0.015343,-0.000228,   8.480
   457.0,0.000043,-0.000171,-0.015258,-0.000241,   8.477
   457.2,0.000039,-0.000173,-0.015149,-0.000241,   8.483
   457.4,0.000036,-0.000178,-0.015031,-0.000228,   8.482
   457.6,0.000036,-0.000177,-0.015524,-0.000241,   8.481
   457.8,0.000036,-0.000185,-0.016309,-0.000241,   8.479
   458.0,0.000032,-0.000185,-0.017390,-0.000228,   8.482
   458.2,0.000036,-0.000183,-0.017402,-0.000241,   8.481
   458.4,0.000036,-0.000186,-0.017045,-0.000241,   8.484
   458.6,0.000039,-0.000183,-0.016286,-0.000228,   8.478
   458.8,0.000036,-0.000183,-0.016044,-0.000241,   8.481
   459.0,0.000039,-0.000184,-0.015863,-0.000241,   8.479
   459.2,0.000035,-0.000182,-0.015733,-0.000228,   8.478
   459.4,0.000039,-0.000182,-0.015628,-0.000241,   8.481
   459.6,0.000043,-0.000187,-0.015576,-0.000241,   8.479
   459.8,0.000039,-0.000186,-0.015528,-0.000228,   8.481
   460.0,0.000036,-0.000191,-0.015443,-0.000241,   8.481
   460.2,0.000040,-0.000197,-0.015359,-0.000241,   8.481
   460.4,0.000036,-0.000191,-0.015266,-0.000228,   8.482
   460.6,0.000039,-0.000186,-0.015213,-0.000241,   8.478
   460.8,0.000050,-0.000191,-0.015186,-0.000241,   8.477
   461.0,0.000042,-0.000189,-0.015206,-0.000228,   8.479
   461.2,0.000042,-0.000183,-0.015213,-0.000241,   8.483
   461.4,0.000042,-0.000186,-0.015226,-0.000241,   8.485
   461.6,0.000035,-0.000184,-0.015258,-0.000228,   8.479
   461.8,0.000042,-0.000176,-0.015181,-0.000241,   8.482
   462.0,0.000042,-0.000179,-0.015084,-0.000241,   8.480
   462.2,0.000035,-0.000179,-0.014975,-0.000228,   8.481
   462.4,0.000042,-0.000177,-0.014954,-0.000241,   8.482
   462.6,0.000042,-0.000180,-0.014995,-0.000228,   8.481
   462.8,0.000035,-0.000177,-0.015031,-0.000228,   8.478
   463.0,0.000042,-0.000171,-0.015141,-0.000265,   8.477
   463.2,0.000039,-0.000174,-0.015141,-0.000228,   8.478
   463.4,0.000035,-0.000177,-0.015141,-0.000252,   8.478
   463.6,0.000039,-0.000171,-0.015121,-0.000252,   8.480
   463.8,0.000036,-0.000174,-0.015056,-0.000228,   8.479
   464.0,0.000032,-0.000174,-0.014999,-0.000228,   8.475
   464.2,0.000036,-0.000174,-0.014902,-0.000228,   8.479
   464.4,0.000036,-0.000178,-0.014930,-0.000228,   8.477
   464.6,0.000032,-0.000178,-0.014975,-0.000228,   8.480
   464.8,0.000039,-0.000178,-0.015076,-0.000228,   8.477
   465.0,0.000039,-0.000183,-0.015076,-0.000228,   8.475
   465.2,0.000035,-0.000183,-0.015072,-0.000228,   8.483
   465.4,0.000042,-0.000183,-0.015011,-0.000228,   8.479
   465.6,0.000046,-0.000180,-0.014979,-0.000203,   8.481
   465.8,0.000042,-0.000180,-0.014967,-0.000241,   8.480
   466.0,0.000042,-0.000177,-0.014954,-0.000228,   8.478
   466.2,0.000046,-0.000177,-0.015164,-0.000203,   8.479
   466.4,0.000042,-0.000180,-0.015483,-0.000241,   8.480
   466.6,0.000042,-0.000177,-0.015927,-0.000228,   8.477
   466.8,0.000046,-0.000177,-0.015992,-0.000203,   8.477
   467.0,0.000046,-0.000180,-0.015939,-0.000241,   8.478
   467.2,0.000042,-0.000177,-0.015774,-0.000228,   8.475
   467.4,0.000050,-0.000179,-0.016213,-0.000203,   8.475
   467.6,0.000046,-0.000182,-0.016873,-0.000241,   8.478
   467.8,0.000050,-0.000182,-0.017791,-0.000228,   8.477
   468.0,0.000039,-0.000182,-0.017727,-0.000203,   8.478
   468.2,0.000036,-0.000183,-0.017298,-0.000241,   8.481
   468.4,0.000032,-0.000183,-0.016523,-0.000228,   8.478
   468.6,0.000039,-0.000175,-0.016189,-0.000241,   8.476
   468.8,0.000042,-0.000178,-0.015955,-0.000241,   8.480
   469.0,0.000038,-0.000176,-0.015773,-0.000228,   8.477
   469.2,0.000048,-0.000178,-0.015806,-0.000241,   8.479
   469.4,0.000056,-0.000184,-0.015995,-0.000241,   8.480
   469.6,0.000055,-0.000179,-0.016321,-0.000228,   8.477
   469.8,0.000061,-0.000179,-0.016309,-0.000241,   8.479
   470.0,0.000071,-0.000181,-0.016184,-0.000241,   8.478
   470.2,0.000070,-0.000181,-0.015959,-0.000228,   8.478
   470.4,0.000070,-0.000177,-0.015842,-0.000228,   8.478
   470.6,0.000081,-0.000174,-0.015705,-0.000228,   8.482
   470.8,0.000079,-0.000172,-0.015621,-0.000228,   8.478
   471.0,0.000082,-0.000173,-0.015548,-0.000228,   8.478
   471.2,0.000093,-0.000176,-0.015504,-0.000228,   8.479
   471.4,0.000089,-0.000168,-0.015504,-0.000214,   8.480
   471.6,0.000092,-0.000165,-0.015483,-0.000252,   8.474
   471.8,0.000098,-0.000168,-0.015479,-0.000214,   8.476
   472.0,0.000090,-0.000158,-0.015483,-0.000252,   8.475
   472.2,0.000098,-0.000153,-0.015524,-0.000252,   8.477
   472.4,0.000098,-0.000154,-0.015806,-0.000214,   8.479
   472.6,0.000090,-0.000143,-0.016224,-0.000201,   8.477
   472.8,0.000098,-0.000141,-0.016727,-0.000201,   8.481
   473.0,0.000098,-0.000142,-0.016683,-0.000201,   8.476
   473.2,0.000090,-0.000132,-0.016409,-0.000187,   8.478
   473.4,0.000090,-0.000132,-0.015934,-0.000187,   8.473
   473.6,0.000087,-0.000135,-0.015797,-0.000187,   8.474
   473.8,0.000083,-0.000129,-0.015745,-0.000174,   8.477
   474.0,0.000083,-0.000132,-0.015749,-0.000174,   8.478
   474.2,0.000087,-0.000132,-0.015664,-0.000187,   8.478
   474.4,0.000083,-0.000129,-0.015587,-0.000174,   8.476
   474.6,0.000087,-0.000129,-0.015495,-0.000174,   8.475
   474.8,0.000092,-0.000129,-0.015567,-0.000187,   8.478
   475.0,0.000084,-0.000135,-0.015697,-0.000174,   8.479
   475.2,0.000089,-0.000129,-0.015958,-0.000174,   8.476
   475.4,0.000082,-0.000134,-0.015946,-0.000187,   8.479
   475.6,0.000072,-0.000137,-0.015834,-0.000174,   8.478
   475.8,0.000076,-0.000139,-0.015656,-0.000174,   8.477
   476.0,0.000070,-0.000139,-0.015644,-0.000187,   8.475
   476.2,0.000070,-0.000145,-0.015664,-0.000174,   8.477
   476.4,0.000059,-0.000144,-0.015717,-0.000174,   8.474
   476.6,0.000067,-0.000146,-0.015664,-0.000187,   8.474
   476.8,0.000064,-0.000157,-0.015592,-0.000174,   8.474
   477.0,0.000061,-0.000152,-0.015467,-0.000174,   8.475
   477.2,0.000065,-0.000158,-0.015427,-0.000187,   8.475
   477.4,0.000059,-0.000165,-0.015451,-0.000174,   8.477
   477.6,0.000051,-0.000168,-0.015516,-0.000187,   8.480
   477.8,0.000051,-0.000167,-0.015496,-0.000163,   8.477
   478.0,0.000059,-0.000164,-0.015456,-0.000201,   8.477
   478.2,0.000051,-0.000169,-0.015415,-0.000201,   8.478
   478.4,0.000051,-0.000171,-0.015331,-0.000177,   8.480
   478.6,0.000059,-0.000166,-0.015234,-0.000214,   8.478
   478.8,0.000051,-0.000170,-0.015124,-0.000201,   8.478
   479.0,0.000051,-0.000170,-0.015059,-0.000177,   8.477
   479.2,0.000051,-0.000176,-0.015007,-0.000214,   8.476
   479.4,0.000044,-0.000176,-0.015007,-0.000201,   8.478
   479.6,0.000051,-0.000167,-0.015027,-0.000214,   8.480
   479.8,0.000051,-0.000167,-0.015052,-0.000214,   8.476
   480.0,0.000044,-0.000173,-0.015149,-0.000214,   8.477
   480.2,0.000051,-0.000170,-0.015096,-0.000190,   8.476
   480.4,0.000048,-0.000165,-0.015019,-0.000228,   8.477
   480.6,0.000038,-0.000167,-0.014902,-0.000228,   8.476
   480.8,0.000045,-0.000169,-0.014869,-0.000190,   8.478
   481.0,0.000042,-0.000166,-0.014837,-0.000190,   8.479
   481.2,0.000032,-0.000168,-0.014849,-0.000214,   8.478
   481.4,0.000039,-0.000176,-0.014874,-0.000190,   8.476
   481.6,0.000039,-0.000174,-0.014874,-0.000190,   8.477
   481.8,0.000038,-0.000174,-0.014886,-0.000228,   8.477
   482.0,0.000045,-0.000171,-0.014939,-0.000190,   8.474
   482.2,0.000045,-0.000174,-0.015076,-0.000190,   8.479
   482.4,0.000041,-0.000174,-0.015318,-0.000228,   8.475
   482.6,0.000041,-0.000174,-0.015593,-0.000228,   8.478
   482.8,0.000038,-0.000177,-0.015593,-0.000228,   8.475
   483.0,0.000027,-0.000180,-0.015508,-0.000228,   8.472
   483.2,0.000027,-0.000177,-0.015326,-0.000228,   8.473
   483.4,0.000035,-0.000179,-0.015269,-0.000228,   8.475
   483.6,0.000024,-0.000182,-0.015189,-0.000228,   8.475
   483.8,0.000024,-0.000179,-0.015149,-0.000228,   8.478
   484.0,0.000032,-0.000177,-0.015181,-0.000228,   8.479
   484.2,0.000027,-0.000174,-0.015258,-0.000228,   8.476
   484.4,0.000027,-0.000173,-0.015400,-0.000228,   8.476
   484.6,0.000035,-0.000174,-0.015339,-0.000228,   8.474
   484.8,0.000027,-0.000174,-0.015242,-0.000228,   8.470
   485.0,0.000027,-0.000174,-0.015073,-0.000228,   8.471
   485.2,0.000032,-0.000178,-0.014923,-0.000228,   8.474
   485.4,0.000029,-0.000186,-0.014781,-0.000228,   8.473
   485.6,0.000024,-0.000186,-0.014599,-0.000228,   8.477
   485.8,0.000021,-0.000186,-0.014587,-0.000203,   8.477
   486.0,0.000025,-0.000189,-0.014639,-0.000241,   8.478
   486.2,0.000018,-0.000192,-0.014749,-0.000228,   8.473
   486.4,0.000025,-0.000187,-0.014781,-0.000203,   8.477
   486.6,0.000025,-0.000187,-0.014814,-0.000241,   8.476
   486.8,0.000021,-0.000190,-0.014854,-0.000228,   8.476
   487.0,0.000029,-0.000185,-0.014959,-0.000203,   8.473
   487.2,0.000033,-0.000184,-0.015081,-0.000241,   8.478
   487.4,0.000029,-0.000189,-0.015275,-0.000228,   8.477
   487.6,0.000036,-0.000190,-0.015295,-0.000203,   8.479
   487.8,0.000033,-0.000190,-0.015230,-0.000241,   8.479
   488.0,0.000029,-0.000185,-0.015133,-0.000228,   8.475
   488.2,0.000033,-0.000178,-0.015153,-0.000203,   8.477
   488.4,0.000030,-0.000183,-0.015198,-0.000241,   8.476
   488.6,0.000025,-0.000180,-0.015307,-0.000228,   8.474
   488.8,0.000033,-0.000179,-0.015557,-0.000190,   8.477
   489.0,0.000033,-0.000182,-0.015879,-0.000228,   8.470
   489.2,0.000029,-0.000177,-0.016290,-0.000214,   8.472
   489.4,0.000036,-0.000179,-0.016310,-0.000177,   8.475
   489.6,0.000043,-0.000182,-0.016161,-0.000214,   8.474
   489.8,0.000039,-0.000182,-0.015819,-0.000201,   8.478
   490.0,0.000039,-0.000182,-0.015787,-0.000214,   8.476
   490.2,0.000050,-0.000191,-0.015807,-0.000228,   8.480
   490.4,0.000042,-0.000191,-0.015899,-0.000265,   8.477
   490.6,0.000039,-0.000189,-0.016068,-0.000241,   8.474
   490.8,0.000040,-0.000192,-0.015964,-0.000217,   8.476
   491.0,0.000036,-0.000192,-0.015794,-0.000254,   8.473
   491.2,0.000036,-0.000190,-0.015585,-0.000217,   8.477
   491.4,0.000033,-0.000190,-0.015476,-0.000203,   8.479
   491.6,0.000029,-0.000187,-0.015383,-0.000241,   8.477
   491.8,0.000036,-0.000189,-0.015331,-0.000228,   8.476
   492.0,0.000033,-0.000189,-0.015234,-0.000203,   8.480
   492.2,0.000029,-0.000189,-0.015129,-0.000241,   8.476
   492.4,0.000039,-0.000189,-0.015044,-0.000228,   8.477
   492.6,0.000039,-0.000189,-0.014999,-0.000203,   8.474
   492.8,0.000035,-0.000189,-0.014979,-0.000241,   8.474
   493.0,0.000039,-0.000189,-0.014979,-0.000228,   8.473
   493.2,0.000036,-0.000186,-0.014947,-0.000203,   8.477
   493.4,0.000032,-0.000175,-0.014914,-0.000241,   8.476
   493.6,0.000029,-0.000173,-0.014862,-0.000228,   8.474
   493.8,0.000029,-0.000178,-0.014914,-0.000203,   8.472
   494.0,0.000024,-0.000178,-0.014991,-0.000241,   8.472
   494.2,0.000029,-0.000178,-0.015141,-0.000228,   8.476
   494.4,0.000040,-0.000183,-0.015193,-0.000203,   8.480
   494.6,0.000040,-0.000183,-0.015206,-0.000241,   8.478
   494.8,0.000036,-0.000183,-0.015206,-0.000228,   8.479
   495.0,0.000036,-0.000181,-0.015213,-0.000203,   8.474
   495.2,0.000036,-0.000184,-0.015213,-0.000241,   8.472
   495.4,0.000039,-0.000181,-0.015193,-0.000228,   8.476
   495.6,0.000043,-0.000181,-0.015306,-0.000203,   8.477
   495.8,0.000043,-0.000187,-0.015476,-0.000241,   8.473
   496.0,0.000039,-0.000187,-0.015710,-0.000228,   8.475
   496.2,0.000036,-0.000181,-0.015718,-0.000241,   8.475
   496.4,0.000043,-0.000176,-0.015633,-0.000241,   8.473
   496.6,0.000039,-0.000176,-0.015448,-0.000228,   8.477
   496.8,0.000036,-0.000178,-0.015415,-0.000203,   8.479
   497.0,0.000043,-0.000175,-0.015415,-0.000241,   8.475
   497.2,0.000039,-0.000175,-0.015460,-0.000228,   8.478
   497.4,0.000036,-0.000180,-0.015440,-0.000241,   8.477
   497.6,0.000043,-0.000186,-0.015415,-0.000241,   8.474
   497.8,0.000039,-0.000186,-0.015383,-0.000228,   8.476
   498.0,0.000039,-0.000178,-0.015331,-0.000241,   8.478
   498.2,0.000046,-0.000183,-0.015306,-0.000241,   8.479
   498.4,0.000045,-0.000186,-0.015274,-0.000228,   8.473
   498.6,0.000045,-0.000182,-0.015261,-0.000241,   8.475
   498.8,0.000045,-0.000185,-0.015241,-0.000241,   8.474
   499.0,0.000041,-0.000181,-0.015221,-0.000241,   8.475
   499.2,0.000044,-0.000172,-0.015213,-0.000279,   8.476
   499.4,0.000041,-0.000172,-0.015213,-0.000241,   8.474
   499.6,0.000033,-0.000175,-0.015234,-0.000265,   8.475
   499.8,0.000037,-0.000170,-0.015246,-0.000265,   8.474
   500.0,0.000041,-0.000171,-0.015213,-0.000228,   8.473
   500.2,0.000033,-0.000174,-0.015213,-0.000228,   8.473
   500.4,0.000037,-0.000171,-0.015193,-0.000228,   8.477
   500.6,0.000044,-0.000172,-0.015169,-0.000228,   8.476
   500.8,0.000037,-0.000170,-0.015129,-0.000228,   8.476
   501.0,0.000040,-0.000167,-0.015088,-0.000228,   8.476
   501.2,0.000047,-0.000168,-0.015088,-0.000228,   8.476
   501.4,0.000040,-0.000166,-0.015141,-0.000228,   8.477
   501.6,0.000040,-0.000161,-0.015186,-0.000228,   8.475
   501.8,0.000044,-0.000161,-0.015173,-0.000228,   8.476
   502.0,0.000037,-0.000170,-0.015121,-0.000228,   8.476
   502.2,0.000037,-0.000170,-0.015084,-0.000228,   8.474
   502.4,0.000041,-0.000172,-0.015052,-0.000228,   8.472
   502.6,0.000033,-0.000175,-0.015039,-0.000228,   8.475
   502.8,0.000037,-0.000175,-0.015031,-0.000228,   8.473
   503.0,0.000041,-0.000167,-0.015031,-0.000228,   8.471
   503.2,0.000033,-0.000162,-0.015044,-0.000228,   8.473
   503.4,0.000037,-0.000164,-0.015088,-0.000241,   8.474
   503.6,0.000041,-0.000166,-0.015068,-0.000217,   8.475
   503.8,0.000041,-0.000164,-0.015064,-0.000254,   8.474
   504.0,0.000037,-0.000170,-0.015011,-0.000241,   8.472
   504.2,0.000040,-0.000175,-0.014991,-0.000203,   8.474
   504.4,0.000050,-0.000178,-0.014991,-0.000241,   8.479
   504.6,0.000056,-0.000186,-0.014996,-0.000228,   8.474
   504.8,0.000059,-0.000183,-0.015040,-0.000203,   8.476
   505.0,0.000070,-0.000178,-0.015125,-0.000241,   8.472
   505.2,0.000066,-0.000178,-0.015235,-0.000228,   8.475
   505.4,0.000076,-0.000176,-0.015202,-0.000228,   8.471
   505.6,0.000079,-0.000171,-0.015133,-0.000228,   8.475
   505.8,0.000078,-0.000166,-0.015011,-0.000241,   8.474
   506.0,0.000085,-0.000164,-0.015052,-0.000254,   8.475
   506.2,0.000085,-0.000164,-0.015136,-0.000254,   8.475
   506.4,0.000081,-0.000158,-0.015298,-0.000241,   8.472
   506.6,0.000092,-0.000158,-0.015338,-0.000228,   8.473
   506.8,0.000098,-0.000155,-0.015326,-0.000228,   8.474
   507.0,0.000094,-0.000153,-0.015314,-0.000214,   8.473
   507.2,0.000104,-0.000150,-0.015289,-0.000214,   8.474
   507.4,0.000104,-0.000143,-0.015225,-0.000201,   8.473
   507.6,0.000100,-0.000145,-0.015172,-0.000201,   8.474
   507.8,0.000103,-0.000145,-0.015172,-0.000201,   8.476
   508.0,0.000097,-0.000135,-0.015212,-0.000201,   8.473
   508.2,0.000086,-0.000135,-0.015245,-0.000187,   8.475
   508.4,0.000094,-0.000132,-0.015330,-0.000225,   8.474
   508.6,0.000095,-0.000137,-0.015277,-0.000187,   8.475
   508.8,0.000087,-0.000133,-0.015232,-0.000225,   8.474
   509.0,0.000092,-0.000129,-0.015135,-0.000225,   8.476
   509.2,0.000092,-0.000134,-0.015071,-0.000174,   8.471
   509.4,0.000087,-0.000137,-0.015018,-0.000161,   8.473
   509.6,0.000092,-0.000133,-0.014966,-0.000174,   8.470
   509.8,0.000089,-0.000136,-0.014933,-0.000174,   8.474
   510.0,0.000081,-0.000143,-0.014941,-0.000161,   8.478
   510.2,0.000078,-0.000140,-0.014945,-0.000174,   8.473
   510.4,0.000072,-0.000143,-0.014978,-0.000174,   8.475
   510.6,0.000061,-0.000146,-0.015030,-0.000161,   8.475
   510.8,0.000058,-0.000149,-0.015115,-0.000174,   8.476
   511.0,0.000063,-0.000143,-0.015115,-0.000174,   8.475
   511.2,0.000052,-0.000140,-0.015120,-0.000161,   8.474
   511.4,0.000049,-0.000145,-0.015120,-0.000174,   8.478
   511.6,0.000056,-0.000144,-0.015172,-0.000174,   8.475
   511.8,0.000053,-0.000150,-0.015261,-0.000161,   8.477
   512.0,0.000046,-0.000150,-0.015391,-0.000174,   8.476
   512.2,0.000046,-0.000150,-0.015895,-0.000187,   8.476
   512.4,0.000050,-0.000154,-0.016619,-0.000174,   8.477
   512.6,0.000043,-0.000161,-0.017578,-0.000174,   8.476
   512.8,0.000047,-0.000156,-0.017578,-0.000187,   8.474
   513.0,0.000047,-0.000154,-0.017246,-0.000174,   8.473
   513.2,0.000040,-0.000164,-0.016567,-0.000174,   8.478
   513.4,0.000040,-0.000161,-0.016261,-0.000187,   8.476
   513.6,0.000044,-0.000163,-0.015987,-0.000174,   8.476
   513.8,0.000037,-0.000168,-0.015753,-0.000187,   8.480
   514.0,0.000037,-0.000170,-0.015584,-0.000201,   8.474
   514.2,0.000041,-0.000170,-0.015467,-0.000201,   8.473
   514.4,0.000033,-0.000170,-0.015394,-0.000214,   8.476
   514.6,0.000037,-0.000170,-0.015370,-0.000190,   8.480
   514.8,0.000041,-0.000167,-0.015362,-0.000228,   8.474
   515.0,0.000033,-0.000170,-0.015379,-0.000228,   8.475
   515.2,0.000033,-0.000174,-0.015411,-0.000190,   8.479
   515.4,0.000038,-0.000170,-0.015476,-0.000228,   8.477
   515.6,0.000030,-0.000173,-0.015545,-0.000228,   8.478
   515.8,0.000030,-0.000176,-0.015480,-0.000228,   8.475
   516.0,0.000038,-0.000178,-0.015415,-0.000228,   8.479
   516.2,0.000030,-0.000175,-0.015278,-0.000252,   8.475
   516.4,0.000030,-0.000179,-0.015573,-0.000265,   8.475
   516.6,0.000038,-0.000179,-0.016032,-0.000265,   8.477
   516.8,0.000027,-0.000182,-0.016684,-0.000303,   8.481
   517.0,0.000027,-0.000180,-0.017538,-0.000265,   8.477
   517.2,0.000035,-0.000177,-0.017442,-0.000265,   8.477
   517.4,0.000024,-0.000183,-0.017057,-0.000265,   8.478
   517.6,0.000024,-0.000183,-0.016418,-0.000265,   8.477
   517.8,0.000032,-0.000183,-0.016164,-0.000265,   8.474
   518.0,0.000027,-0.000180,-0.015955,-0.000265,   8.477
   518.2,0.000027,-0.000179,-0.015798,-0.000265,   8.475
   518.4,0.000035,-0.000181,-0.015616,-0.000265,   8.474
   518.6,0.000027,-0.000181,-0.015439,-0.000265,   8.476
   518.8,0.000027,-0.000179,-0.015289,-0.000265,   8.473
   519.0,0.000035,-0.000179,-0.015237,-0.000265,   8.472
   519.2,0.000027,-0.000179,-0.015249,-0.000265,   8.475
   519.4,0.000027,-0.000179,-0.015338,-0.000265,   8.476
   519.6,0.000035,-0.000184,-0.015318,-0.000265,   8.478
   519.8,0.000027,-0.000178,-0.015278,-0.000265,   8.476
   520.0,0.000027,-0.000178,-0.015246,-0.000265,   8.475
   520.2,0.000035,-0.000181,-0.015234,-0.000265,   8.479
   520.4,0.000027,-0.000181,-0.015246,-0.000228,   8.476
   520.6,0.000027,-0.000181,-0.015246,-0.000228,   8.474
   520.8,0.000032,-0.000185,-0.015234,-0.000228,   8.476
   521.0,0.000029,-0.000190,-0.015266,-0.000190,   8.476
   521.2,0.000027,-0.000193,-0.015278,-0.000190,   8.474
   521.4,0.000024,-0.000185,-0.015391,-0.000228,   8.476
   521.6,0.000032,-0.000185,-0.015560,-0.000228,   8.474
   521.8,0.000027,-0.000188,-0.015782,-0.000228,   8.475
   522.0,0.000032,-0.000185,-0.015738,-0.000228,   8.476
   522.2,0.000029,-0.000185,-0.015568,-0.000228,   8.478
   522.4,0.000024,-0.000190,-0.015314,-0.000228,   8.478
   522.6,0.000021,-0.000187,-0.015282,-0.000228,   8.477
   522.8,0.000029,-0.000181,-0.015306,-0.000228,   8.478
   523.0,0.000024,-0.000184,-0.015415,-0.000228,   8.476
   523.2,0.000021,-0.000181,-0.015351,-0.000228,   8.476
   523.4,0.000029,-0.000181,-0.015254,-0.000228,   8.480
   523.6,0.000024,-0.000181,-0.015104,-0.000241,   8.478
   523.8,0.000024,-0.000186,-0.015241,-0.000254,   8.479
   524.0,0.000032,-0.000194,-0.015516,-0.000254,   8.479
   524.2,0.000027,-0.000194,-0.015927,-0.000254,   8.480
   524.4,0.000027,-0.000189,-0.015939,-0.000254,   8.477
   524.6,0.000032,-0.000189,-0.015847,-0.000254,   8.477
   524.8,0.000027,-0.000192,-0.015657,-0.000254,   8.474
   525.0,0.000024,-0.000187,-0.015573,-0.000254,   8.479
   525.2,0.000029,-0.000185,-0.015480,-0.000254,   8.477
   525.4,0.000024,-0.000190,-0.015415,-0.000254,   8.476
   525.6,0.000021,-0.000189,-0.015698,-0.000279,   8.475
   525.8,0.000029,-0.000189,-0.016156,-0.000254,   8.474
   526.0,0.000024,-0.000192,-0.016764,-0.000279,   8.475
   526.2,0.000024,-0.000187,-0.017578,-0.000279,   8.477
   526.4,0.000032,-0.000184,-0.017506,-0.000254,   8.478
   526.6,0.000027,-0.000189,-0.017218,-0.000254,   8.474
   526.8,0.000027,-0.000185,-0.016688,-0.000254,   8.471
   527.0,0.000032,-0.000188,-0.016427,-0.000254,   8.471
   527.2,0.000027,-0.000186,-0.016225,-0.000254,   8.475
   527.4,0.000027,-0.000186,-0.016056,-0.000254,   8.477
   527.6,0.000032,-0.000181,-0.015907,-0.000254,   8.479
   527.8,0.000027,-0.000181,-0.015794,-0.000254,   8.476
   528.0,0.000027,-0.000180,-0.015702,-0.000254,   8.474
   528.2,0.000032,-0.000179,-0.015899,-0.000254,   8.477
   528.4,0.000027,-0.000179,-0.016266,-0.000254,   8.470
   528.6,0.000027,-0.000182,-0.016780,-0.000241,   8.475
   528.8,0.000032,-0.000187,-0.016696,-0.000241,   8.475
   529.0,0.000027,-0.000193,-0.016450,-0.000241,   8.474
   529.2,0.000027,-0.000190,-0.015979,-0.000228,   8.477
   529.4,0.000032,-0.000181,-0.015802,-0.000241,   8.480
   529.6,0.000032,-0.000184,-0.015685,-0.000241,   8.477
   529.8,0.000027,-0.000182,-0.015645,-0.000228,   8.476
   530.0,0.000027,-0.000179,-0.015593,-0.000241,   8.474
   530.2,0.000032,-0.000180,-0.015533,-0.000241,   8.476
   530.4,0.000027,-0.000175,-0.015525,-0.000228,   8.476
   530.6,0.000038,-0.000178,-0.015460,-0.000241,   8.480
   530.8,0.000038,-0.000176,-0.015395,-0.000241,   8.474
   531.0,0.000033,-0.000174,-0.015303,-0.000228,   8.479
   531.2,0.000041,-0.000176,-0.015206,-0.000241,   8.479
   531.4,0.000045,-0.000174,-0.015108,-0.000241,   8.475
   531.6,0.000035,-0.000174,-0.015024,-0.000228,   8.473
   531.8,0.000035,-0.000171,-0.014959,-0.000241,   8.476
   532.0,0.000035,-0.000171,-0.014906,-0.000241,   8.478
   532.2,0.000027,-0.000176,-0.014886,-0.000228,   8.474
   532.4,0.000027,-0.000175,-0.015084,-0.000241,   8.478
   532.6,0.000038,-0.000181,-0.015359,-0.000241,   8.482
   532.8,0.000033,-0.000178,-0.015778,-0.000228,   8.480
   533.0,0.000033,-0.000176,-0.015818,-0.000241,   8.477
   533.2,0.000038,-0.000176,-0.015693,-0.000241,   8.477
   533.4,0.000030,-0.000176,-0.015463,-0.000228,   8.480
   533.6,0.000033,-0.000173,-0.015366,-0.000241,   8.478
   533.8,0.000041,-0.000178,-0.015261,-0.000241,   8.483
   534.0,0.000033,-0.000174,-0.015189,-0.000228,   8.476
   534.2,0.000033,-0.000174,-0.015157,-0.000241,   8.475
   534.4,0.000038,-0.000174,-0.015136,-0.000241,   8.477
   534.6,0.000030,-0.000168,-0.015141,-0.000241,   8.476
   534.8,0.000030,-0.000167,-0.015206,-0.000279,   8.480
   535.0,0.000038,-0.000173,-0.015173,-0.000241,   8.477
   535.2,0.000030,-0.000170,-0.015121,-0.000265,   8.476
   535.4,0.000033,-0.000170,-0.015068,-0.000279,   8.476
   535.6,0.000044,-0.000176,-0.015270,-0.000241,   8.479
   535.8,0.000037,-0.000176,-0.015677,-0.000241,   8.481
   536.0,0.000044,-0.000170,-0.016205,-0.000228,   8.478
   536.2,0.000051,-0.000170,-0.016499,-0.000241,   8.476
   536.4,0.000044,-0.000176,-0.016760,-0.000241,   8.479
   536.6,0.000051,-0.000168,-0.017001,-0.000228,   8.477
   536.8,0.000051,-0.000168,-0.016865,-0.000241,   8.476
   537.0,0.000044,-0.000171,-0.016559,-0.000241,   8.474
   537.2,0.000051,-0.000171,-0.016056,-0.000228,   8.478
   537.4,0.000051,-0.000171,-0.015875,-0.000241,   8.478
   537.6,0.000047,-0.000171,-0.015742,-0.000241,   8.478
   537.8,0.000055,-0.000170,-0.015662,-0.000228,   8.478
   538.0,0.000058,-0.000170,-0.015520,-0.000241,   8.476
   538.2,0.000053,-0.000173,-0.015331,-0.000241,   8.480
   538.4,0.000061,-0.000170,-0.015149,-0.000228,   8.478
   538.6,0.000061,-0.000166,-0.015076,-0.000241,   8.479
   538.8,0.000061,-0.000172,-0.015076,-0.000241,   8.478
   539.0,0.000053,-0.000175,-0.015173,-0.000228,   8.477
   539.2,0.000061,-0.000170,-0.015141,-0.000228,   8.479
   539.4,0.000061,-0.000170,-0.015056,-0.000228,   8.478
   539.6,0.000064,-0.000170,-0.014991,-0.000228,   8.478
   539.8,0.000067,-0.000159,-0.014959,-0.000228,   8.478
   540.0,0.000070,-0.000156,-0.014926,-0.000228,   8.477
   540.2,0.000069,-0.000154,-0.014911,-0.000228,   8.477
   540.4,0.000079,-0.000154,-0.014878,-0.000228,   8.478
   540.6,0.000085,-0.000155,-0.014854,-0.000228,   8.477
   540.8,0.000087,-0.000153,-0.014842,-0.000228,   8.479
   541.0,0.000098,-0.000153,-0.014862,-0.000228,   8.477
   541.2,0.000101,-0.000154,-0.014906,-0.000228,   8.478
   541.4,0.000100,-0.000151,-0.015004,-0.000214,   8.483
   541.6,0.000110,-0.000143,-0.015149,-0.000214,   8.481
   541.8,0.000113,-0.000135,-0.015359,-0.000201,   8.480
   542.0,0.000109,-0.000131,-0.015601,-0.000201,   8.481
   542.2,0.000116,-0.000131,-0.015581,-0.000201,   8.480
   542.4,0.000120,-0.000128,-0.015463,-0.000187,   8.477
   542.6,0.000115,-0.000123,-0.015241,-0.000187,   8.480
   542.8,0.000123,-0.000124,-0.015246,-0.000187,   8.482
   543.0,0.000123,-0.000123,-0.015355,-0.000174,   8.478
   543.2,0.000118,-0.000125,-0.015537,-0.000174,   8.479
   543.4,0.000123,-0.000115,-0.015517,-0.000174,   8.475
   543.6,0.000120,-0.000110,-0.015472,-0.000174,   8.481
   543.8,0.000115,-0.000109,-0.015335,-0.000174,   8.478
   544.0,0.000116,-0.000108,-0.015193,-0.000198,   8.477
   544.2,0.000113,-0.000111,-0.015181,-0.000174,   8.480
   544.4,0.000106,-0.000105,-0.015221,-0.000212,   8.482
   544.6,0.000113,-0.000108,-0.015266,-0.000212,   8.482
   544.8,0.000110,-0.000113,-0.015241,-0.000174,   8.479
   545.0,0.000103,-0.000110,-0.015169,-0.000161,   8.478
   545.2,0.000107,-0.000112,-0.015076,-0.000174,   8.479
   545.4,0.000101,-0.000115,-0.015056,-0.000174,   8.479
   545.6,0.000090,-0.000110,-0.015088,-0.000161,   8.483
   545.8,0.000095,-0.000112,-0.015145,-0.000174,   8.479
   546.0,0.000092,-0.000110,-0.015093,-0.000174,   8.482
   546.2,0.000084,-0.000116,-0.015020,-0.000161,   8.478
   546.4,0.000085,-0.000120,-0.014923,-0.000174,   8.480
   546.6,0.000085,-0.000125,-0.014891,-0.000174,   8.483
   546.8,0.000078,-0.000134,-0.014891,-0.000161,   8.484
   547.0,0.000082,-0.000137,-0.014883,-0.000174,   8.480
   547.2,0.000076,-0.000134,-0.014863,-0.000174,   8.479
   547.4,0.000073,-0.000140,-0.014830,-0.000161,   8.480
   547.6,0.000069,-0.000148,-0.014810,-0.000174,   8.485
   547.8,0.000073,-0.000142,-0.014802,-0.000187,   8.480
   548.0,0.000073,-0.000141,-0.014855,-0.000174,   8.477
   548.2,0.000066,-0.000146,-0.014940,-0.000174,   8.477
   548.4,0.000070,-0.000152,-0.014887,-0.000187,   8.481
   548.6,0.000063,-0.000152,-0.014822,-0.000174,   8.480
   548.8,0.000052,-0.000150,-0.014713,-0.000187,   8.480
   549.0,0.000052,-0.000153,-0.014741,-0.000201,   8.482
   549.2,0.000059,-0.000156,-0.014806,-0.000187,   8.482
   549.4,0.000055,-0.000156,-0.014915,-0.000201,   8.481
   549.6,0.000052,-0.000153,-0.014903,-0.000201,   8.483
   549.8,0.000056,-0.000147,-0.014866,-0.000187,   8.481
   550.0,0.000052,-0.000152,-0.014741,-0.000201,   8.478
   550.2,0.000056,-0.000154,-0.014729,-0.000201,   8.482
   550.4,0.000061,-0.000154,-0.014741,-0.000187,   8.478
   550.6,0.000056,-0.000151,-0.014766,-0.000201,   8.484
   550.8,0.000064,-0.000151,-0.014733,-0.000201,   8.481
   551.0,0.000061,-0.000157,-0.014713,-0.000187,   8.481
   551.2,0.000056,-0.000154,-0.014673,-0.000201,   8.483
   551.4,0.000061,-0.000149,-0.014660,-0.000201,   8.479
   551.6,0.000058,-0.000154,-0.014653,-0.000187,   8.480
   551.8,0.000053,-0.000157,-0.014685,-0.000201,   8.480
   552.0,0.000058,-0.000154,-0.014717,-0.000201,   8.478
   552.2,0.000058,-0.000164,-0.014738,-0.000201,   8.481
   552.4,0.000050,-0.000158,-0.014790,-0.000187,   8.483
   552.6,0.000058,-0.000154,-0.014815,-0.000238,   8.484
   552.8,0.000055,-0.000161,-0.015485,-0.000201,   8.482
   553.0,0.000047,-0.000160,-0.016407,-0.000225,   8.479
   553.2,0.000058,-0.000156,-0.017587,-0.000238,   8.485
   553.4,0.000055,-0.000160,-0.017587,-0.000201,   8.485
   553.6,0.000047,-0.000163,-0.017138,-0.000201,   8.483
   553.8,0.000058,-0.000167,-0.016258,-0.000201,   8.481
   554.0,0.000055,-0.000168,-0.015964,-0.000214,   8.483
   554.2,0.000047,-0.000166,-0.015754,-0.000214,   8.482
   554.4,0.000055,-0.000171,-0.015650,-0.000201,   8.481
   554.6,0.000051,-0.000174,-0.015492,-0.000214,   8.483
   554.8,0.000044,-0.000174,-0.015355,-0.000214,   8.484
   555.0,0.000051,-0.000172,-0.015242,-0.000201,   8.482
   555.2,0.000051,-0.000172,-0.015190,-0.000214,   8.483
   555.4,0.000044,-0.000167,-0.015178,-0.000214,   8.486
   555.6,0.000051,-0.000170,-0.015182,-0.000201,   8.480
   555.8,0.000051,-0.000170,-0.015162,-0.000214,   8.483
   556.0,0.000044,-0.000167,-0.015162,-0.000214,   8.483
   556.2,0.000051,-0.000167,-0.015146,-0.000201,   8.482
   556.4,0.000051,-0.000170,-0.014997,-0.000214,   8.485
   556.6,0.000044,-0.000167,-0.014782,-0.000214,   8.487
   556.8,0.000044,-0.000167,-0.014535,-0.000214,   8.488
   557.0,0.000041,-0.000170,-0.014568,-0.000228,   8.487
   557.2,0.000041,-0.000167,-0.014697,-0.000228,   8.480
   557.4,0.000033,-0.000172,-0.014964,-0.000228,   8.483
   557.6,0.000030,-0.000177,-0.014984,-0.000228,   8.486
