Run Name,50% CRL Dead Time Group 6 2/24
Run Date,02:45:54 PM   02-24-14
Method Name,50%B-Isocratic.3
Export Format Version, 1.00
Method ID, 1807
Points/Second, 5.00
Number of Records,   3600
Offset from Run Start Time,00:00:00
Run End Time,00:12:00
Time,Second
QuadTec 1, (280.0 nm), AU
QuadTec 2, (260.0 nm), AU
Gradient Pump,<Not Selected>
QuadTec 3, (214.0 nm), AU
QuadTec 4, (405.0 nm), AU
Conductivity,mS/cm
Trace 6,<Not Available>
GP Pressure,<Not Selected>
Volume,<Not Selected>
Fraction,<Not Available>
Time,QuadTec 1,QuadTec 2,QuadTec 3,QuadTec 4,Conductivity
     0.0,0.010425,0.008183,0.244913,-0.440237,  49.989
     0.2,0.010430,0.008188,0.244913,-0.440260,  49.998
     0.4,0.010435,0.008198,0.244933,-0.440224,  49.994
     0.6,0.010438,0.008201,0.244989,-0.440224,  49.980
     0.8,0.010443,0.008204,0.244989,-0.440247,  49.973
     1.0,0.010446,0.008213,0.244978,-0.440211,  49.972
     1.2,0.010960,0.008213,0.244958,-0.440224,  49.970
     1.4,0.010979,0.008212,0.244928,-0.440247,  49.969
     1.6,0.011008,0.008221,0.244958,-0.440211,  49.975
     1.8,0.011041,0.008223,0.245014,-0.440224,  49.965
     2.0,0.000000,0.008220,0.245085,-0.440247,  49.968
     2.2,0.000000,0.008225,0.245115,-0.440211,  49.968
     2.4,0.000000,0.000000,0.245130,-0.440211,  49.969
     2.6,0.000000,0.000000,0.244890,-0.440189,  49.971
     2.8,0.000000,0.000000,0.244890,-0.440143,  49.973
     3.0,0.000000,0.000000,0.244890,-0.440124,  49.971
     3.2,0.000000,0.000000,0.244890,-0.445732,  49.972
     3.4,0.000000,0.000000,0.244890,0.000000,  49.973
     3.6,0.000000,0.000000,0.000000,0.000000,  49.970
     3.8,0.000000,0.000000,0.000000,0.000000,  49.965
     4.0,0.000000,0.000000,0.000000,0.000000,  49.948
     4.2,0.000000,0.000000,0.000000,0.000000,  49.953
     4.4,0.000000,0.000000,0.000000,0.000000,  49.950
     4.6,0.000000,0.000000,0.000000,0.000000,  49.953
     4.8,0.000000,0.000000,0.000000,0.000000,  49.943
     5.0,0.000000,0.000000,0.000000,0.000000,  49.950
     5.2,0.000000,0.000000,0.000000,0.000000,  49.946
     5.4,0.000000,0.000000,0.000000,0.000000,  49.949
     5.6,0.000000,0.000000,0.000000,0.000000,  49.948
     5.8,0.000000,0.000000,0.000000,0.000000,  49.946
     6.0,-0.000005,0.000000,0.000000,0.000000,  49.947
     6.2,0.000000,0.000000,0.000000,0.000000,  49.942
     6.4,0.000006,0.000000,0.000000,0.000000,  49.944
     6.6,0.000006,0.000000,0.000000,0.000000,  49.946
     6.8,0.000004,0.000000,0.000000,0.000000,  49.942
     7.0,-0.000005,0.000000,0.000000,0.000000,  49.943
     7.2,-0.000011,-0.000005,0.000038,0.000000,  49.944
     7.4,-0.000009,-0.000010,-0.000091,0.000000,  49.940
     7.6,-0.000009,-0.000013,-0.000194,0.000000,  49.941
     7.8,-0.000012,-0.000016,-0.000250,0.000000,  49.937
     8.0,-0.000015,-0.000021,-0.000281,0.000000,  49.938
     8.2,-0.000021,-0.000026,-0.000271,0.000000,  49.943
     8.4,-0.000030,-0.000027,-0.000240,0.000036,  49.957
     8.6,-0.000038,-0.000028,-0.000251,0.000013,  49.959
     8.8,-0.000058,-0.000031,-0.000262,-0.000023,  49.972
     9.0,-0.000080,-0.000033,-0.000277,-0.000023,  49.973
     9.2,-0.000091,-0.000040,-0.000266,-0.000023,  49.960
     9.4,-0.000104,-0.000044,-0.000268,-0.000010,  49.938
     9.6,-0.000121,-0.000044,-0.000269,-0.000023,  49.937
     9.8,-0.000120,-0.000052,-0.000260,-0.000010,  49.939
    10.0,-0.000115,-0.000069,-0.000240,-0.000010,  49.933
    10.2,-0.000112,-0.000077,-0.000236,-0.000010,  49.941
    10.4,-0.000095,-0.000089,-0.000249,-0.000010,  49.938
    10.6,-0.000084,-0.000106,-0.000304,0.000003,  49.940
    10.8,-0.000086,-0.000115,-0.000361,0.000003,  49.937
    11.0,-0.000078,-0.000118,-0.000381,-0.000010,  49.935
    11.2,-0.000072,-0.000118,-0.000398,-0.000023,  49.938
    11.4,-0.000070,-0.000108,-0.000387,-0.000062,  49.936
    11.6,-0.000061,-0.000100,-0.000390,-0.000114,  49.935
    11.8,-0.000058,-0.000098,-0.000372,-0.000114,  49.935
    12.0,-0.000053,-0.000085,-0.000337,-0.000114,  49.938
    12.2,-0.000050,-0.000079,-0.000292,-0.000114,  49.936
    12.4,-0.000036,-0.000077,-0.000278,-0.000088,  49.935
    12.6,-0.000028,-0.000071,-0.000263,-0.000075,  49.939
    12.8,-0.000025,-0.000071,-0.000252,-0.000062,  49.934
    13.0,-0.000012,-0.000061,-0.000581,-0.000049,  49.938
    13.2,-0.000002,-0.000064,-0.001100,-0.000036,  49.931
    13.4,0.000001,-0.000058,-0.001770,-0.000036,  49.931
    13.6,-0.000003,-0.000054,-0.001800,-0.000036,  49.938
    13.8,-0.000005,-0.000048,-0.001600,-0.000036,  49.934
    14.0,-0.000012,-0.000044,-0.001164,-0.000036,  49.932
    14.2,-0.000023,-0.000043,-0.001031,-0.000071,  49.937
    14.4,-0.000017,-0.000041,-0.000939,-0.000059,  49.938
    14.6,-0.000026,-0.000038,-0.000867,-0.000059,  49.939
    14.8,-0.000026,-0.000038,-0.000790,-0.000046,  49.938
    15.0,-0.000024,-0.000038,-0.000728,-0.000033,  49.941
    15.2,-0.000020,-0.000031,-0.000686,0.000003,  49.941
    15.4,-0.000023,-0.000033,-0.000624,0.000052,  49.943
    15.6,-0.000020,-0.000034,-0.000588,0.000052,  49.947
    15.8,-0.000029,-0.000033,-0.000557,0.000003,  49.943
    16.0,-0.000023,-0.000035,-0.000547,0.000016,  49.941
    16.2,-0.000029,-0.000037,-0.000583,0.000003,  49.944
    16.4,-0.000032,-0.000037,-0.000634,-0.000010,  49.945
    16.6,-0.000028,-0.000037,-0.000654,-0.000033,  49.942
    16.8,-0.000028,-0.000041,-0.000680,-0.000033,  49.952
    17.0,-0.000028,-0.000036,-0.000710,-0.000033,  49.963
    17.2,-0.000028,-0.000040,-0.000731,-0.000020,  49.971
    17.4,-0.000041,-0.000044,-0.000741,-0.000020,  49.980
    17.6,-0.000059,-0.000042,-0.000740,0.000003,  49.979
    17.8,-0.000086,-0.000042,-0.000710,0.000016,  49.972
    18.0,-0.000106,-0.000045,-0.000660,0.000016,  49.950
    18.2,-0.000116,-0.000041,-0.000572,-0.000033,  49.954
    18.4,-0.000127,-0.000050,-0.000511,-0.000055,  49.954
    18.6,-0.000130,-0.000058,-0.000476,-0.000055,  49.954
    18.8,-0.000117,-0.000074,-0.000446,-0.000033,  49.955
    19.0,-0.000098,-0.000081,-0.000418,-0.000020,  49.954
    19.2,-0.000083,-0.000085,-0.000396,-0.000033,  49.955
    19.4,-0.000075,-0.000093,-0.000382,-0.000046,  49.955
    19.6,-0.000070,-0.000098,-0.000393,-0.000071,  49.957
    19.8,-0.000058,-0.000101,-0.000410,-0.000107,  49.951
    20.0,-0.000053,-0.000099,-0.000431,-0.000123,  49.952
    20.2,-0.000054,-0.000100,-0.000464,-0.000162,  49.949
    20.4,-0.000052,-0.000099,-0.000506,-0.000162,  49.950
    20.6,-0.000049,-0.000089,-0.000547,-0.000149,  49.945
    20.8,-0.000042,-0.000083,-0.000597,-0.000123,  49.947
    21.0,-0.000046,-0.000080,-0.000607,-0.000097,  49.948
    21.2,-0.000044,-0.000074,-0.000628,-0.000084,  49.947
    21.4,-0.000040,-0.000073,-0.000628,-0.000084,  49.948
    21.6,-0.000044,-0.000062,-0.000619,-0.000036,  49.949
    21.8,-0.000041,-0.000056,-0.000604,-0.000023,  49.950
    22.0,-0.000029,-0.000052,-0.000583,-0.000049,  49.949
    22.2,-0.000036,-0.000054,-0.000559,-0.000013,  49.946
    22.4,-0.000041,-0.000057,-0.000519,0.000013,  49.945
    22.6,-0.000040,-0.000060,-0.000474,-0.000023,  49.946
    22.8,-0.000046,-0.000058,-0.000500,-0.000023,  49.946
    23.0,-0.000044,-0.000053,-0.000562,-0.000010,  49.953
    23.2,-0.000044,-0.000046,-0.000637,-0.000023,  49.946
    23.4,-0.000044,-0.000047,-0.000618,-0.000010,  49.946
    23.6,-0.000041,-0.000047,-0.000578,-0.000010,  49.950
    23.8,-0.000044,-0.000051,-0.000503,-0.000010,  49.953
    24.0,-0.000044,-0.000053,-0.000468,0.000003,  49.952
    24.2,-0.000041,-0.000061,-0.000453,-0.000010,  49.956
    24.4,-0.000044,-0.000058,-0.000453,-0.000010,  49.952
    24.6,-0.000044,-0.000064,-0.000438,0.000003,  49.953
    24.8,-0.000044,-0.000059,-0.000433,-0.000010,  49.951
    25.0,-0.000047,-0.000058,-0.000427,-0.000010,  49.952
    25.2,-0.000041,-0.000063,-0.000447,-0.000033,  49.959
    25.4,-0.000042,-0.000056,-0.000494,-0.000046,  49.961
    25.6,-0.000042,-0.000052,-0.000543,-0.000046,  49.970
    25.8,-0.000040,-0.000052,-0.000563,-0.000033,  49.981
    26.0,-0.000059,-0.000052,-0.000589,-0.000046,  50.001
    26.2,-0.000083,-0.000048,-0.000625,-0.000010,  49.993
    26.4,-0.000111,-0.000050,-0.000625,0.000039,  49.979
    26.6,-0.000111,-0.000055,-0.000599,0.000026,  49.979
    26.8,-0.000120,-0.000050,-0.000574,-0.000010,  49.980
    27.0,-0.000114,-0.000061,-0.000599,0.000003,  49.980
    27.2,-0.000109,-0.000073,-0.000666,-0.000010,  49.978
    27.4,-0.000099,-0.000086,-0.000735,-0.000010,  49.960
    27.6,-0.000091,-0.000095,-0.000687,-0.000010,  49.960
    27.8,-0.000085,-0.000098,-0.000604,-0.000010,  49.953
    28.0,-0.000074,-0.000106,-0.000479,-0.000023,  49.955
    28.2,-0.000073,-0.000108,-0.000622,-0.000049,  49.950
    28.4,-0.000069,-0.000102,-0.000895,-0.000075,  49.949
    28.6,-0.000067,-0.000096,-0.001292,-0.000140,  49.950
    28.8,-0.000065,-0.000095,-0.001353,-0.000153,  49.950
    29.0,-0.000067,-0.000090,-0.001308,-0.000153,  49.949
    29.2,-0.000059,-0.000080,-0.001154,-0.000091,  49.949
    29.4,-0.000047,-0.000079,-0.000904,-0.000078,  49.946
    29.6,-0.000044,-0.000078,-0.000812,-0.000088,  49.945
    29.8,-0.000036,-0.000069,-0.000720,-0.000075,  49.945
    30.0,-0.000039,-0.000068,-0.000634,-0.000075,  49.946
    30.2,-0.000040,-0.000059,-0.000630,-0.000062,  49.947
    30.4,-0.000037,-0.000052,-0.000660,-0.000049,  49.940
    30.6,-0.000041,-0.000053,-0.000731,-0.000049,  49.943
    30.8,-0.000041,-0.000048,-0.000705,-0.000036,  49.941
    31.0,-0.000044,-0.000052,-0.000670,-0.000023,  49.937
    31.2,-0.000046,-0.000050,-0.000614,-0.000049,  49.935
    31.4,-0.000046,-0.000051,-0.000604,-0.000049,  49.938
    31.6,-0.000046,-0.000052,-0.000624,-0.000023,  49.936
    31.8,-0.000049,-0.000054,-0.000664,-0.000023,  49.932
    32.0,-0.000049,-0.000059,-0.000685,-0.000010,  49.934
    32.2,-0.000049,-0.000059,-0.000717,0.000003,  49.933
    32.4,-0.000052,-0.000058,-0.000732,0.000003,  49.931
    32.6,-0.000052,-0.000065,-0.000783,0.000016,  49.932
    32.8,-0.000052,-0.000064,-0.000860,0.000016,  49.936
    33.0,-0.000052,-0.000064,-0.000946,0.000003,  49.927
    33.2,-0.000054,-0.000072,-0.000936,0.000016,  49.929
    33.4,-0.000057,-0.000072,-0.000906,0.000016,  49.926
    33.6,-0.000056,-0.000069,-0.000845,0.000003,  49.926
    33.8,-0.000062,-0.000074,-0.001246,0.000016,  49.930
    34.0,-0.000059,-0.000076,-0.001866,0.000003,  49.938
    34.2,-0.000048,-0.000072,-0.002726,-0.000010,  49.944
    34.4,-0.000056,-0.000075,-0.002728,0.000003,  49.949
    34.6,-0.000081,-0.000075,-0.002390,0.000003,  49.954
    34.8,-0.000093,-0.000079,-0.001740,0.000003,  49.930
    35.0,-0.000124,-0.000079,-0.001582,0.000016,  49.919
    35.2,-0.000139,-0.000075,-0.001484,0.000003,  49.919
    35.4,-0.000137,-0.000075,-0.001467,-0.000010,  49.916
    35.6,-0.000140,-0.000081,-0.001350,-0.000010,  49.916
    35.8,-0.000139,-0.000093,-0.001222,-0.000010,  49.917
    36.0,-0.000125,-0.000104,-0.001099,-0.000023,  49.910
    36.2,-0.000103,-0.000118,-0.001559,-0.000023,  49.913
    36.4,-0.000099,-0.000126,-0.002321,-0.000023,  49.909
    36.6,-0.000091,-0.000133,-0.003370,-0.000036,  49.909
    36.8,-0.000077,-0.000135,-0.003334,-0.000062,  49.910
    37.0,-0.000073,-0.000123,-0.002912,-0.000101,  49.905
    37.2,-0.000061,-0.000109,-0.002102,-0.000166,  49.908
    37.4,-0.000049,-0.000104,-0.001825,-0.000166,  49.904
    37.6,-0.000050,-0.000094,-0.001615,-0.000140,  49.906
    37.8,-0.000041,-0.000084,-0.001502,-0.000101,  49.907
    38.0,-0.000044,-0.000079,-0.001359,-0.000110,  49.904
    38.2,-0.000045,-0.000071,-0.001246,-0.000110,  49.905
    38.4,-0.000042,-0.000065,-0.001153,-0.000097,  49.904
    38.6,-0.000040,-0.000063,-0.001081,-0.000084,  49.900
    38.8,-0.000044,-0.000058,-0.001014,-0.000107,  49.905
    39.0,-0.000037,-0.000058,-0.000978,-0.000059,  49.906
    39.2,-0.000033,-0.000056,-0.000963,-0.000059,  49.902
    39.4,-0.000040,-0.000054,-0.000882,-0.000046,  49.899
    39.6,-0.000033,-0.000055,-0.000806,-0.000059,  49.902
    39.8,-0.000029,-0.000053,-0.000720,-0.000023,  49.905
    40.0,-0.000036,-0.000053,-0.000780,0.000026,  49.900
    40.2,-0.000033,-0.000053,-0.000922,0.000039,  49.902
    40.4,-0.000033,-0.000054,-0.001156,0.000003,  49.902
    40.6,-0.000040,-0.000053,-0.001203,-0.000020,  49.905
    40.8,-0.000033,-0.000056,-0.001182,-0.000020,  49.899
    41.0,-0.000033,-0.000052,-0.001105,-0.000033,  49.907
    41.2,-0.000040,-0.000054,-0.001049,-0.000055,  49.904
    41.4,-0.000040,-0.000050,-0.000993,-0.000055,  49.902
    41.6,-0.000042,-0.000047,-0.000901,-0.000033,  49.902
    41.8,-0.000049,-0.000050,-0.000856,0.000016,  49.901
    42.0,-0.000044,-0.000053,-0.000826,0.000016,  49.899
    42.2,-0.000037,-0.000056,-0.000811,0.000003,  49.901
    42.4,-0.000044,-0.000061,-0.000770,0.000016,  49.903
    42.6,-0.000046,-0.000058,-0.000750,0.000016,  49.911
    42.8,-0.000045,-0.000060,-0.000725,-0.000033,  49.923
    43.0,-0.000058,-0.000064,-0.000915,-0.000033,  49.933
    43.2,-0.000083,-0.000062,-0.001212,-0.000033,  49.926
    43.4,-0.000100,-0.000056,-0.001631,-0.000023,  49.907
    43.6,-0.000132,-0.000056,-0.001668,0.000026,  49.900
    43.8,-0.000149,-0.000061,-0.001555,0.000026,  49.898
    44.0,-0.000148,-0.000061,-0.001314,-0.000010,  49.893
    44.2,-0.000151,-0.000071,-0.001192,-0.000033,  49.892
    44.4,-0.000149,-0.000084,-0.001059,-0.000046,  49.893
    44.6,-0.000139,-0.000105,-0.000921,-0.000046,  49.893
    44.8,-0.000123,-0.000117,-0.000827,-0.000081,  49.895
    45.0,-0.000115,-0.000126,-0.000759,-0.000094,  49.893
    45.2,-0.000107,-0.000135,-0.000699,-0.000071,  49.891
    45.4,-0.000102,-0.000138,-0.000684,-0.000097,  49.893
    45.6,-0.000096,-0.000134,-0.000707,-0.000149,  49.890
    45.8,-0.000094,-0.000131,-0.000744,-0.000214,  49.892
    46.0,-0.000088,-0.000128,-0.000735,-0.000214,  49.891
    46.2,-0.000081,-0.000120,-0.000726,-0.000188,  49.893
    46.4,-0.000075,-0.000113,-0.000711,-0.000149,  49.891
    46.6,-0.000073,-0.000109,-0.000747,-0.000136,  49.887
    46.8,-0.000067,-0.000107,-0.000819,-0.000123,  49.892
    47.0,-0.000059,-0.000100,-0.000927,-0.000110,  49.893
    47.2,-0.000057,-0.000098,-0.000952,-0.000097,  49.891
    47.4,-0.000052,-0.000088,-0.000958,-0.000133,  49.892
    47.6,-0.000046,-0.000082,-0.000937,-0.000084,  49.893
    47.8,-0.000044,-0.000083,-0.000907,-0.000084,  49.892
    48.0,-0.000041,-0.000074,-0.000939,-0.000084,  49.894
    48.2,-0.000041,-0.000070,-0.000958,-0.000084,  49.890
    48.4,-0.000042,-0.000064,-0.000988,-0.000071,  49.892
    48.6,-0.000049,-0.000060,-0.001234,-0.000036,  49.889
    48.8,-0.000046,-0.000056,-0.001630,-0.000023,  49.887
    49.0,-0.000042,-0.000054,-0.002136,-0.000023,  49.886
    49.2,-0.000049,-0.000056,-0.002279,-0.000023,  49.889
    49.4,-0.000049,-0.000059,-0.002309,-0.000010,  49.892
    49.6,-0.000045,-0.000062,-0.002231,-0.000059,  49.892
    49.8,-0.000054,-0.000060,-0.002103,-0.000094,  49.890
    50.0,-0.000054,-0.000060,-0.001904,-0.000081,  49.888
    50.2,-0.000048,-0.000057,-0.001616,-0.000059,  49.888
    50.4,-0.000057,-0.000060,-0.001463,-0.000059,  49.889
    50.6,-0.000057,-0.000062,-0.001362,-0.000046,  49.890
    50.8,-0.000054,-0.000062,-0.001281,-0.000059,  49.890
    51.0,-0.000054,-0.000068,-0.001199,-0.000046,  49.894
    51.2,-0.000054,-0.000070,-0.001123,-0.000046,  49.903
    51.4,-0.000057,-0.000070,-0.001071,-0.000046,  49.915
    51.6,-0.000070,-0.000067,-0.001052,-0.000033,  49.922
    51.8,-0.000086,-0.000069,-0.001046,-0.000046,  49.912
    52.0,-0.000119,-0.000064,-0.001065,-0.000046,  49.892
    52.2,-0.000141,-0.000062,-0.001040,-0.000046,  49.891
    52.4,-0.000153,-0.000064,-0.001029,-0.000046,  49.886
    52.6,-0.000162,-0.000064,-0.001014,-0.000059,  49.888
    52.8,-0.000157,-0.000080,-0.000978,-0.000010,  49.882
    53.0,-0.000155,-0.000096,-0.000952,-0.000010,  49.884
    53.2,-0.000142,-0.000110,-0.000910,-0.000010,  49.886
    53.4,-0.000113,-0.000122,-0.000878,-0.000010,  49.884
    53.6,-0.000096,-0.000136,-0.000866,-0.000023,  49.881
    53.8,-0.000091,-0.000140,-0.000842,-0.000071,  49.888
    54.0,-0.000083,-0.000136,-0.001320,-0.000110,  49.878
    54.2,-0.000069,-0.000133,-0.002048,-0.000162,  49.880
    54.4,-0.000066,-0.000128,-0.003036,-0.000192,  49.878
    54.6,-0.000073,-0.000125,-0.003063,-0.000156,  49.876
    54.8,-0.000067,-0.000117,-0.002711,-0.000130,  49.880
    55.0,-0.000059,-0.000104,-0.002016,-0.000114,  49.878
    55.2,-0.000050,-0.000093,-0.001976,-0.000088,  49.877
    55.4,-0.000058,-0.000087,-0.002078,-0.000075,  49.877
    55.6,-0.000053,-0.000079,-0.002344,-0.000075,  49.875
    55.8,-0.000050,-0.000074,-0.002221,-0.000062,  49.879
    56.0,-0.000047,-0.000070,-0.001991,-0.000097,  49.878
    56.2,-0.000045,-0.000070,-0.001653,-0.000036,  49.873
    56.4,-0.000044,-0.000071,-0.001504,-0.000071,  49.876
    56.6,-0.000037,-0.000072,-0.001401,-0.000059,  49.874
    56.8,-0.000035,-0.000063,-0.001335,-0.000059,  49.875
    57.0,-0.000037,-0.000060,-0.001314,-0.000059,  49.872
    57.2,-0.000044,-0.000058,-0.001222,-0.000059,  49.872
    57.4,-0.000037,-0.000056,-0.001141,-0.000046,  49.875
    57.6,-0.000027,-0.000060,-0.001053,-0.000059,  49.877
    57.8,-0.000033,-0.000057,-0.001002,-0.000046,  49.877
    58.0,-0.000042,-0.000057,-0.000981,-0.000033,  49.875
    58.2,-0.000045,-0.000058,-0.000981,-0.000033,  49.874
    58.4,-0.000050,-0.000054,-0.001026,0.000003,  49.876
    58.6,-0.000045,-0.000054,-0.001127,-0.000010,  49.870
    58.8,-0.000030,-0.000051,-0.001264,-0.000036,  49.877
    59.0,-0.000036,-0.000051,-0.001269,0.000000,  49.877
    59.2,-0.000044,-0.000055,-0.001260,0.000013,  49.874
    59.4,-0.000040,-0.000059,-0.001194,-0.000023,  49.874
    59.6,-0.000044,-0.000061,-0.001159,-0.000046,  49.881
    59.8,-0.000053,-0.000061,-0.001129,-0.000046,  49.894
    60.0,-0.000053,-0.000059,-0.001093,-0.000046,  49.899
    60.2,-0.000073,-0.000061,-0.001082,-0.000033,  49.913
    60.4,-0.000102,-0.000064,-0.001103,-0.000046,  49.890
    60.6,-0.000129,-0.000066,-0.001144,-0.000010,  49.877
    60.8,-0.000137,-0.000066,-0.001534,0.000026,  49.871
    61.0,-0.000149,-0.000064,-0.002112,0.000013,  49.870
    61.2,-0.000135,-0.000066,-0.002885,0.000000,  49.850
    61.4,-0.000124,-0.000076,-0.002844,-0.000036,  49.853
    61.6,-0.000116,-0.000089,-0.002486,-0.000036,  49.848
    61.8,-0.000102,-0.000111,-0.001836,-0.000036,  49.844
    62.0,-0.000082,-0.000116,-0.001600,-0.000036,  49.840
    62.2,-0.000078,-0.000122,-0.001430,-0.000049,  49.842
    62.4,-0.000074,-0.000128,-0.001316,-0.000062,  49.839
    62.6,-0.000064,-0.000124,-0.001096,-0.000101,  49.835
    62.8,-0.000059,-0.000110,-0.000860,-0.000140,  49.831
    63.0,-0.000052,-0.000100,-0.000611,-0.000192,  49.829
    63.2,-0.000042,-0.000096,-0.000556,-0.000192,  49.830
    63.4,-0.000044,-0.000089,-0.000596,-0.000179,  49.829
    63.6,-0.000036,-0.000083,-0.000719,-0.000127,  49.826
    63.8,-0.000033,-0.000076,-0.000703,-0.000136,  49.827
    64.0,-0.000028,-0.000070,-0.000673,-0.000123,  49.828
    64.2,-0.000025,-0.000067,-0.000617,-0.000110,  49.826
    64.4,-0.000016,-0.000061,-0.000628,-0.000133,  49.826
    64.6,-0.000020,-0.000057,-0.000658,-0.000120,  49.823
    64.8,-0.000020,-0.000053,-0.000708,-0.000071,  49.819
    65.0,-0.000019,-0.000047,-0.000719,-0.000071,  49.820
    65.2,-0.000024,-0.000037,-0.000693,-0.000081,  49.821
    65.4,-0.000020,-0.000035,-0.000667,-0.000046,  49.822
    65.6,-0.000011,-0.000033,-0.000616,-0.000046,  49.815
    65.8,-0.000018,-0.000034,-0.000648,-0.000033,  49.821
    66.0,-0.000019,-0.000037,-0.000682,-0.000033,  49.822
    66.2,-0.000014,-0.000035,-0.000759,-0.000033,  49.821
    66.4,-0.000017,-0.000039,-0.000780,-0.000020,  49.820
    66.6,-0.000017,-0.000041,-0.000774,-0.000020,  49.818
    66.8,-0.000017,-0.000046,-0.000770,-0.000033,  49.825
    67.0,-0.000024,-0.000043,-0.000785,0.000016,  49.820
    67.2,-0.000017,-0.000035,-0.000805,0.000016,  49.822
    67.4,-0.000020,-0.000036,-0.000856,0.000003,  49.817
    67.6,-0.000021,-0.000036,-0.001071,0.000052,  49.820
    67.8,-0.000019,-0.000034,-0.001374,0.000052,  49.826
    68.0,-0.000016,-0.000039,-0.001789,0.000003,  49.825
    68.2,-0.000020,-0.000046,-0.001795,0.000016,  49.831
    68.4,-0.000023,-0.000048,-0.001627,0.000003,  49.839
    68.6,-0.000028,-0.000044,-0.001314,-0.000010,  49.851
    68.8,-0.000049,-0.000046,-0.001186,-0.000010,  49.861
    69.0,-0.000081,-0.000050,-0.001079,-0.000010,  49.828
    69.2,-0.000116,-0.000047,-0.000987,-0.000023,  49.830
    69.4,-0.000131,-0.000049,-0.000921,-0.000010,  49.819
    69.6,-0.000125,-0.000050,-0.000880,0.000003,  49.821
    69.8,-0.000110,-0.000047,-0.000859,0.000003,  49.823
    70.0,-0.000102,-0.000055,-0.000827,0.000016,  49.818
    70.2,-0.000100,-0.000073,-0.000811,0.000003,  49.823
    70.4,-0.000090,-0.000092,-0.000803,-0.000010,  49.819
    70.6,-0.000073,-0.000103,-0.000725,-0.000010,  49.815
    70.8,-0.000071,-0.000115,-0.000627,-0.000023,  49.822
    71.0,-0.000066,-0.000114,-0.000509,-0.000049,  49.822
    71.2,-0.000052,-0.000110,-0.000519,-0.000075,  49.821
    71.4,-0.000053,-0.000111,-0.000581,-0.000114,  49.822
    71.6,-0.000047,-0.000095,-0.000716,-0.000179,  49.819
    71.8,-0.000045,-0.000087,-0.000737,-0.000179,  49.823
    72.0,-0.000042,-0.000082,-0.000747,-0.000153,  49.825
    72.2,-0.000040,-0.000077,-0.000737,-0.000114,  49.829
    72.4,-0.000027,-0.000071,-0.000747,-0.000088,  49.825
    72.6,-0.000021,-0.000070,-0.000762,-0.000075,  49.827
    72.8,-0.000019,-0.000069,-0.000799,-0.000062,  49.831
    73.0,-0.000023,-0.000068,-0.000989,-0.000049,  49.830
    73.2,-0.000020,-0.000069,-0.001297,-0.000036,  49.834
    73.4,-0.000020,-0.000060,-0.001687,-0.000036,  49.837
    73.6,-0.000025,-0.000058,-0.001698,-0.000023,  49.833
    73.8,-0.000025,-0.000055,-0.001580,-0.000023,  49.839
    74.0,-0.000023,-0.000050,-0.001318,-0.000010,  49.840
    74.2,-0.000025,-0.000048,-0.001237,-0.000010,  49.841
    74.4,-0.000025,-0.000055,-0.001160,0.000003,  49.839
    74.6,-0.000025,-0.000056,-0.001105,0.000003,  49.843
    74.8,-0.000028,-0.000058,-0.001074,-0.000010,  49.838
    75.0,-0.000030,-0.000057,-0.001034,0.000003,  49.844
    75.2,-0.000030,-0.000054,-0.001013,-0.000010,  49.845
    75.4,-0.000033,-0.000052,-0.001002,-0.000010,  49.841
    75.6,-0.000030,-0.000050,-0.001151,-0.000033,  49.845
    75.8,-0.000030,-0.000046,-0.001386,-0.000033,  49.844
    76.0,-0.000028,-0.000044,-0.001719,-0.000033,  49.848
    76.2,-0.000028,-0.000044,-0.001704,-0.000055,  49.846
    76.4,-0.000028,-0.000048,-0.001571,-0.000068,  49.849
    76.6,-0.000033,-0.000048,-0.001309,-0.000046,  49.856
    76.8,-0.000036,-0.000046,-0.001218,-0.000046,  49.863
    77.0,-0.000041,-0.000051,-0.001157,-0.000046,  49.872
    77.2,-0.000040,-0.000051,-0.001111,-0.000059,  49.882
    77.4,-0.000070,-0.000055,-0.001029,-0.000023,  49.891
    77.6,-0.000110,-0.000056,-0.000933,-0.000010,  49.884
    77.8,-0.000160,-0.000054,-0.000836,-0.000023,  49.863
    78.0,-0.000168,-0.000060,-0.000806,0.000013,  49.860
    78.2,-0.000160,-0.000061,-0.000791,0.000026,  49.863
    78.4,-0.000139,-0.000061,-0.000806,-0.000023,  49.863
    78.6,-0.000131,-0.000078,-0.000770,-0.000010,  49.865
    78.8,-0.000120,-0.000102,-0.000733,-0.000010,  49.867
    79.0,-0.000110,-0.000119,-0.000685,-0.000010,  49.868
    79.2,-0.000093,-0.000131,-0.000679,-0.000010,  49.868
    79.4,-0.000088,-0.000139,-0.000699,-0.000036,  49.870
    79.6,-0.000074,-0.000134,-0.000734,-0.000062,  49.870
    79.8,-0.000066,-0.000128,-0.000708,-0.000123,  49.870
    80.0,-0.000067,-0.000118,-0.000673,-0.000149,  49.877
    80.2,-0.000059,-0.000099,-0.000628,-0.000201,  49.879
    80.4,-0.000054,-0.000091,-0.000638,-0.000201,  49.878
    80.6,-0.000055,-0.000086,-0.000685,-0.000175,  49.876
    80.8,-0.000050,-0.000082,-0.000756,-0.000101,  49.873
    81.0,-0.000042,-0.000076,-0.001172,-0.000052,  49.878
    81.2,-0.000034,-0.000072,-0.001792,-0.000052,  49.877
    81.4,-0.000034,-0.000071,-0.002590,-0.000075,  49.882
    81.6,-0.000028,-0.000065,-0.002600,-0.000062,  49.883
    81.8,-0.000019,-0.000061,-0.002303,-0.000049,  49.882
    82.0,-0.000013,-0.000055,-0.001725,-0.000036,  49.884
    82.2,-0.000013,-0.000049,-0.001501,-0.000023,  49.887
    82.4,-0.000015,-0.000050,-0.001296,-0.000010,  49.902
    82.6,-0.000003,-0.000044,-0.001133,-0.000023,  49.907
    82.8,0.000009,-0.000043,-0.001005,-0.000023,  49.901
    83.0,0.000005,-0.000037,-0.000908,-0.000010,  49.907
    83.2,0.000010,-0.000033,-0.000851,-0.000010,  49.911
    83.4,0.000010,-0.000034,-0.000819,-0.000010,  49.906
    83.6,0.000006,-0.000028,-0.000773,0.000003,  49.908
    83.8,0.000009,-0.000028,-0.000756,0.000003,  49.907
    84.0,0.000018,-0.000029,-0.000740,0.000003,  49.911
    84.2,0.000014,-0.000025,-0.000780,0.000016,  49.910
    84.4,0.000009,-0.000020,-0.000856,0.000016,  49.909
    84.6,0.000006,-0.000018,-0.000961,0.000003,  49.908
    84.8,0.000006,-0.000016,-0.000971,0.000016,  49.914
    85.0,0.000004,-0.000012,-0.000971,0.000016,  49.912
    85.2,0.000001,-0.000010,-0.000939,0.000003,  49.916
    85.4,-0.000001,-0.000010,-0.000871,0.000016,  49.919
    85.6,-0.000004,-0.000007,-0.000815,0.000016,  49.930
    85.8,-0.000007,-0.000009,-0.000729,0.000003,  49.934
    86.0,-0.000036,-0.000014,-0.000704,0.000016,  49.933
    86.2,-0.000075,-0.000007,-0.000708,0.000016,  49.923
    86.4,-0.000119,-0.000009,-0.000732,0.000003,  49.919
    86.6,-0.000133,-0.000011,-0.000698,0.000016,  49.915
    86.8,-0.000125,-0.000013,-0.000652,0.000016,  49.918
    87.0,-0.000095,-0.000015,-0.000581,0.000003,  49.920
    87.2,-0.000087,-0.000030,-0.000808,-0.000020,  49.919
    87.4,-0.000083,-0.000057,-0.001160,-0.000020,  49.918
    87.6,-0.000069,-0.000082,-0.001656,-0.000033,  49.916
    87.8,-0.000061,-0.000094,-0.001630,-0.000068,  49.921
    88.0,-0.000057,-0.000100,-0.001415,-0.000081,  49.917
    88.2,-0.000052,-0.000098,-0.001004,-0.000071,  49.916
    88.4,-0.000041,-0.000099,-0.000841,-0.000049,  49.924
    88.6,-0.000033,-0.000092,-0.000719,-0.000062,  49.921
    88.8,-0.000028,-0.000074,-0.000612,-0.000088,  49.925
    89.0,-0.000023,-0.000066,-0.000771,-0.000039,  49.923
    89.2,-0.000017,-0.000062,-0.001069,-0.000026,  49.924
    89.4,-0.000015,-0.000051,-0.001529,-0.000049,  49.920
    89.6,-0.000006,-0.000042,-0.001525,-0.000036,  49.920
    89.8,-0.000009,-0.000039,-0.001356,-0.000010,  49.923
    90.0,-0.000009,-0.000039,-0.001038,-0.000023,  49.922
    90.2,-0.000000,-0.000036,-0.000927,-0.000010,  49.924
    90.4,-0.000007,-0.000037,-0.000829,0.000003,  49.925
    90.6,-0.000003,-0.000033,-0.000767,0.000003,  49.923
    90.8,-0.000002,-0.000034,-0.000705,0.000016,  49.925
    91.0,-0.000003,-0.000035,-0.000669,0.000016,  49.931
    91.2,-0.000000,-0.000033,-0.000652,0.000003,  49.929
    91.4,0.000002,-0.000036,-0.000627,0.000003,  49.933
    91.6,-0.000004,-0.000034,-0.000607,0.000003,  49.932
    91.8,-0.000004,-0.000026,-0.000592,0.000003,  49.932
    92.0,-0.000007,-0.000026,-0.000587,0.000003,  49.928
    92.2,-0.000009,-0.000024,-0.000602,0.000003,  49.929
    92.4,-0.000009,-0.000026,-0.000643,0.000003,  49.923
    92.6,-0.000003,-0.000022,-0.000705,0.000003,  49.934
    92.8,-0.000007,-0.000026,-0.000972,0.000016,  49.931
    93.0,-0.000007,-0.000026,-0.001362,0.000016,  49.928
    93.2,-0.000003,-0.000029,-0.001853,0.000003,  49.924
    93.4,-0.000004,-0.000025,-0.001868,0.000016,  49.928
    93.6,-0.000004,-0.000027,-0.001699,0.000016,  49.925
    93.8,0.000002,-0.000024,-0.001361,0.000003,  49.930
    94.0,-0.000004,-0.000026,-0.001254,0.000016,  49.935
    94.2,-0.000009,-0.000024,-0.001166,0.000003,  49.943
    94.4,-0.000017,-0.000025,-0.001105,-0.000010,  49.948
    94.6,-0.000044,-0.000023,-0.000998,0.000003,  49.943
    94.8,-0.000086,-0.000016,-0.000880,-0.000010,  49.934
    95.0,-0.000136,-0.000016,-0.000752,-0.000010,  49.929
    95.2,-0.000142,-0.000019,-0.000685,0.000003,  49.926
    95.4,-0.000136,-0.000020,-0.000660,0.000003,  49.928
    95.6,-0.000101,-0.000027,-0.000664,0.000003,  49.923
    95.8,-0.000088,-0.000043,-0.000673,-0.000020,  49.927
    96.0,-0.000075,-0.000061,-0.000723,-0.000020,  49.921
    96.2,-0.000067,-0.000093,-0.000782,-0.000033,  49.919
    96.4,-0.000053,-0.000099,-0.000740,-0.000033,  49.920
    96.6,-0.000042,-0.000100,-0.000684,-0.000046,  49.920
    96.8,-0.000028,-0.000093,-0.000582,-0.000049,  49.919
    97.0,-0.000020,-0.000083,-0.000541,-0.000026,  49.919
    97.2,-0.000006,-0.000074,-0.000511,-0.000026,  49.919
    97.4,0.000002,-0.000062,-0.000512,-0.000088,  49.926
    97.6,-0.000001,-0.000054,-0.000488,-0.000075,  49.915
    97.8,-0.000003,-0.000048,-0.000436,-0.000075,  49.922
    98.0,0.000003,-0.000041,-0.000379,-0.000062,  49.916
    98.2,0.000003,-0.000038,-0.000359,-0.000049,  49.918
    98.4,-0.000001,-0.000038,-0.000340,-0.000049,  49.918
    98.6,0.000001,-0.000035,-0.000320,-0.000026,  49.921
    98.8,0.000008,-0.000035,-0.000320,-0.000062,  49.921
    99.0,0.000011,-0.000031,-0.000346,-0.000036,  49.918
    99.2,0.000011,-0.000024,-0.000387,0.000013,  49.920
    99.4,0.000008,-0.000024,-0.000382,-0.000010,  49.918
    99.6,0.000011,-0.000026,-0.000367,-0.000010,  49.923
    99.8,0.000008,-0.000024,-0.000341,-0.000010,  49.922
   100.0,0.000005,-0.000020,-0.000367,0.000003,  49.923
   100.2,0.000008,-0.000026,-0.000418,-0.000010,  49.922
   100.4,-0.000001,-0.000024,-0.000468,-0.000010,  49.923
   100.6,-0.000001,-0.000022,-0.000509,-0.000010,  49.927
   100.8,0.000004,-0.000020,-0.000545,0.000003,  49.919
   101.0,-0.000002,-0.000013,-0.000565,0.000039,  49.921
   101.2,0.000007,-0.000014,-0.000595,0.000026,  49.919
   101.4,0.000009,-0.000015,-0.000580,0.000039,  49.924
   101.6,0.000005,-0.000015,-0.000565,0.000026,  49.921
   101.8,0.000012,-0.000016,-0.000530,0.000026,  49.920
   102.0,0.000015,-0.000010,-0.000489,-0.000010,  49.920
   102.2,0.000015,-0.000011,-0.000432,-0.000010,  49.918
   102.4,0.000024,-0.000008,-0.000381,0.000013,  49.925
   102.6,0.000021,-0.000007,-0.000361,-0.000023,  49.929
   102.8,0.000016,-0.000006,-0.000329,-0.000010,  49.937
   103.0,0.000011,-0.000004,-0.000319,0.000013,  49.941
   103.2,-0.000016,0.000000,-0.000323,-0.000010,  49.938
   103.4,-0.000053,0.000001,-0.000337,-0.000010,  49.918
   103.6,-0.000100,-0.000000,-0.000372,0.000026,  49.919
   103.8,-0.000098,-0.000003,-0.000366,0.000003,  49.918
   104.0,-0.000082,-0.000001,-0.000360,-0.000010,  49.916
   104.2,-0.000047,-0.000000,-0.000343,0.000026,  49.918
   104.4,-0.000029,-0.000019,-0.000292,0.000003,  49.916
   104.6,-0.000011,-0.000045,-0.000203,-0.000010,  49.916
   104.8,0.000011,-0.000084,-0.000093,0.000026,  49.917
   105.0,0.000026,-0.000090,-0.000081,-0.000023,  49.911
   105.2,0.000037,-0.000082,-0.000136,-0.000049,  49.915
   105.4,0.000050,-0.000065,-0.000238,-0.000039,  49.911
   105.6,0.000055,-0.000057,-0.000217,-0.000088,  49.913
   105.8,0.000062,-0.000047,-0.000174,-0.000088,  49.912
   106.0,0.000079,-0.000031,-0.000112,-0.000052,  49.917
   106.2,0.000087,-0.000021,-0.000199,-0.000075,  49.913
   106.4,0.000107,-0.000011,-0.000368,-0.000075,  49.914
   106.6,0.000120,-0.000001,-0.000591,-0.000039,  49.913
   106.8,0.000130,0.000011,-0.000533,-0.000062,  49.913
   107.0,0.000153,0.000014,-0.000388,-0.000049,  49.915
   107.2,0.000169,0.000020,-0.000118,-0.000036,  49.921
   107.4,0.000183,0.000030,0.000074,-0.000023,  49.918
   107.6,0.000195,0.000034,0.000281,-0.000010,  49.912
   107.8,0.000211,0.000042,0.000505,-0.000023,  49.916
   108.0,0.000227,0.000053,0.000405,-0.000023,  49.918
   108.2,0.000239,0.000055,0.000145,-0.000010,  49.920
   108.4,0.000260,0.000061,-0.000251,-0.000023,  49.919
   108.6,0.000282,0.000073,-0.000063,-0.000023,  49.917
   108.8,0.000310,0.000080,0.000347,-0.000023,  49.922
   109.0,0.000336,0.000088,0.000984,-0.000036,  49.923
   109.2,0.000360,0.000093,0.001252,-0.000036,  49.919
   109.4,0.000396,0.000101,0.001443,-0.000036,  49.923
   109.6,0.000427,0.000115,0.001562,-0.000023,  49.923
   109.8,0.000452,0.000129,0.001768,-0.000036,  49.927
   110.0,0.000487,0.000144,0.001979,-0.000036,  49.926
   110.2,0.000521,0.000161,0.002195,-0.000036,  49.926
   110.4,0.000558,0.000174,0.002400,-0.000036,  49.929
   110.6,0.000594,0.000191,0.002644,-0.000036,  49.927
   110.8,0.000636,0.000205,0.002895,-0.000036,  49.924
   111.0,0.000681,0.000220,0.003162,-0.000036,  49.931
   111.2,0.000723,0.000242,0.003444,-0.000036,  49.936
   111.4,0.000766,0.000271,0.003769,-0.000036,  49.945
   111.6,0.000806,0.000292,0.004110,-0.000036,  49.949
   111.8,0.000829,0.000304,0.004487,-0.000036,  49.939
   112.0,0.000834,0.000325,0.004903,-0.000036,  49.929
   112.2,0.000826,0.000333,0.005360,-0.000036,  49.931
   112.4,0.000872,0.000352,0.005787,-0.000036,  49.930
   112.6,0.000946,0.000374,0.006221,-0.000036,  49.931
   112.8,0.001051,0.000404,0.006645,-0.000036,  49.933
   113.0,0.001124,0.000407,0.007080,-0.000036,  49.937
   113.2,0.001212,0.000397,0.007514,-0.000036,  49.937
   113.4,0.001304,0.000384,0.007939,-0.000036,  49.937
   113.6,0.001383,0.000406,0.008349,-0.000049,  49.937
   113.8,0.001463,0.000442,0.008739,-0.000062,  49.936
   114.0,0.001551,0.000498,0.009116,-0.000088,  49.939
   114.2,0.001625,0.000539,0.009266,-0.000088,  49.940
   114.4,0.001694,0.000588,0.009279,-0.000101,  49.940
   114.6,0.001755,0.000641,0.009172,-0.000065,  49.936
   114.8,0.001817,0.000690,0.009820,-0.000075,  49.940
   115.0,0.001907,0.000742,0.010785,-0.000075,  49.937
   115.2,0.001996,0.000796,0.012040,-0.000026,  49.938
   115.4,0.002106,0.000842,0.012975,-0.000049,  49.938
   115.6,0.002213,0.000892,0.013892,-0.000036,  49.940
   115.8,0.002344,0.000937,0.014807,-0.000036,  49.935
   116.0,0.002474,0.000988,0.015778,-0.000023,  49.934
   116.2,0.002582,0.001046,0.016762,-0.000010,  49.938
   116.4,0.002693,0.001098,0.017772,0.000003,  49.938
   116.6,0.002790,0.001157,0.018807,0.000016,  49.939
   116.8,0.002902,0.001229,0.019850,0.000016,  49.936
   117.0,0.003016,0.001301,0.020913,0.000003,  49.938
   117.2,0.003125,0.001358,0.021907,0.000016,  49.934
   117.4,0.003252,0.001416,0.022882,0.000003,  49.932
   117.6,0.003385,0.001480,0.023837,-0.000010,  49.928
   117.8,0.003524,0.001542,0.024854,0.000003,  49.931
   118.0,0.003672,0.001601,0.025890,-0.000010,  49.923
   118.2,0.003827,0.001666,0.026956,-0.000010,  49.928
   118.4,0.003989,0.001735,0.027879,0.000003,  49.929
   118.6,0.004144,0.001812,0.028753,0.000003,  49.928
   118.8,0.004298,0.001887,0.029562,0.000016,  49.932
   119.0,0.004462,0.001968,0.030304,0.000003,  49.933
   119.2,0.004618,0.002048,0.031489,0.000003,  49.930
   119.4,0.004783,0.002139,0.032814,0.000003,  49.931
   119.6,0.004960,0.002231,0.034263,0.000003,  49.939
   119.8,0.005125,0.002315,0.035723,0.000016,  49.938
   120.0,0.005287,0.002407,0.037268,0.000003,  49.943
   120.2,0.005453,0.002500,0.038853,-0.000010,  49.953
   120.4,0.005568,0.002589,0.040352,0.000003,  49.934
   120.6,0.005653,0.002685,0.041839,0.000003,  49.921
   120.8,0.005719,0.002770,0.043302,0.000003,  49.922
   121.0,0.005883,0.002845,0.044946,0.000016,  49.917
   121.2,0.006097,0.002913,0.046648,0.000016,  49.920
   121.4,0.006361,0.002976,0.048434,0.000003,  49.918
   121.6,0.006574,0.003032,0.049878,0.000016,  49.918
   121.8,0.006799,0.003075,0.051172,0.000016,  49.915
   122.0,0.007029,0.003112,0.052309,0.000003,  49.913
   122.2,0.007257,0.003202,0.053628,0.000003,  49.913
   122.4,0.007485,0.003312,0.054945,-0.000023,  49.913
   122.6,0.007720,0.003443,0.056284,-0.000062,  49.913
   122.8,0.007918,0.003564,0.058091,-0.000062,  49.911
   123.0,0.008096,0.003692,0.060137,-0.000062,  49.911
   123.2,0.008265,0.003823,0.062449,-0.000062,  49.911
   123.4,0.008413,0.003949,0.064559,-0.000062,  49.908
   123.6,0.008635,0.004074,0.066691,-0.000049,  49.903
   123.8,0.008895,0.004207,0.068854,-0.000036,  49.901
   124.0,0.009169,0.004339,0.070945,-0.000023,  49.902
   124.2,0.009446,0.004466,0.073016,-0.000010,  49.897
   124.4,0.009751,0.004602,0.075046,0.000003,  49.898
   124.6,0.010066,0.004736,0.077250,0.000016,  49.893
   124.8,0.010324,0.004875,0.079529,0.000016,  49.892
   125.0,0.010576,0.005024,0.081871,0.000052,  49.890
   125.2,0.010803,0.005179,0.084177,0.000029,  49.886
   125.4,0.011043,0.005344,0.086500,0.000029,  49.888
   125.6,0.011302,0.005524,0.088806,0.000042,  49.885
   125.8,0.011550,0.005673,0.091262,0.000019,  49.878
   126.0,0.011811,0.005808,0.093794,0.000019,  49.857
   126.2,0.012084,0.005943,0.096423,0.000019,  49.864
   126.4,0.012368,0.006078,0.098820,0.000019,  49.862
   126.6,0.012663,0.006212,0.101123,0.000019,  49.862
   126.8,0.012972,0.006350,0.103377,0.000042,  49.859
   127.0,0.013300,0.006498,0.105811,0.000065,  49.857
   127.2,0.013591,0.006651,0.108301,0.000065,  49.858
   127.4,0.013888,0.006817,0.110838,0.000065,  49.855
   127.6,0.014180,0.006980,0.113137,0.000065,  49.849
   127.8,0.014485,0.007150,0.115344,0.000042,  49.853
   128.0,0.014796,0.007329,0.117426,0.000042,  49.850
   128.2,0.015111,0.007495,0.119418,0.000055,  49.859
   128.4,0.015413,0.007661,0.122014,0.000068,  49.871
   128.6,0.015694,0.007826,0.124794,0.000055,  49.878
   128.8,0.015964,0.007990,0.127766,0.000055,  49.879
   129.0,0.016164,0.008163,0.130546,0.000042,  49.854
   129.2,0.016314,0.008337,0.133315,0.000042,  49.850
   129.4,0.016421,0.008482,0.136094,0.000042,  49.845
   129.6,0.016715,0.008615,0.139003,0.000029,  49.841
   129.8,0.017076,0.008734,0.141961,0.000029,  49.840
   130.0,0.017515,0.008845,0.145002,0.000042,  49.845
   130.2,0.017857,0.008948,0.147378,0.000055,  49.839
   130.4,0.018194,0.009038,0.149436,0.000068,  49.841
   130.6,0.018534,0.009123,0.151187,0.000068,  49.841
   130.8,0.018871,0.009276,0.153790,0.000055,  49.840
   131.0,0.019216,0.009461,0.156615,0.000042,  49.844
   131.2,0.019564,0.009677,0.159729,-0.000023,  49.842
   131.4,0.019891,0.009873,0.162808,-0.000036,  49.840
   131.6,0.020225,0.010073,0.166008,-0.000023,  49.839
   131.8,0.020557,0.010279,0.169304,-0.000023,  49.834
   132.0,0.020899,0.010472,0.172455,-0.000010,  49.835
   132.2,0.021247,0.010662,0.175604,0.000003,  49.830
   132.4,0.021611,0.010856,0.178722,0.000039,  49.830
   132.6,0.021930,0.011043,0.181463,0.000016,  49.830
   132.8,0.022235,0.011227,0.183999,0.000029,  49.831
   133.0,0.022516,0.011416,0.186342,0.000065,  49.829
   133.2,0.022786,0.011604,0.189461,0.000055,  49.827
   133.4,0.023100,0.011796,0.192851,0.000068,  49.828
   133.6,0.023420,0.011994,0.196542,0.000104,  49.828
   133.8,0.023745,0.012209,0.200338,0.000081,  49.826
   134.0,0.024063,0.012438,0.204302,0.000094,  49.828
   134.2,0.024378,0.012680,0.208470,0.000081,  49.831
   134.4,0.024695,0.012877,0.211956,0.000081,  49.823
   134.6,0.025024,0.013067,0.215153,0.000081,  49.827
   134.8,0.025350,0.013237,0.218070,0.000081,  49.824
   135.0,0.025692,0.013415,0.220984,0.000081,  49.822
   135.2,0.026044,0.013590,0.223753,0.000081,  49.827
   135.4,0.026396,0.013763,0.226361,0.000081,  49.825
   135.6,0.026767,0.013944,0.229385,0.000081,  49.825
   135.8,0.027113,0.014135,0.232562,0.000081,  49.828
   136.0,0.027443,0.014335,0.235872,0.000104,  49.830
   136.2,0.027779,0.014531,0.239153,0.000068,  49.829
   136.4,0.028119,0.014733,0.242484,0.000081,  49.833
   136.6,0.028460,0.014947,0.245889,0.000081,  49.835
   136.8,0.028807,0.015140,0.248722,0.000081,  49.848
   137.0,0.029117,0.015327,0.251328,0.000081,  49.860
   137.2,0.029411,0.015512,0.253641,0.000081,  49.871
   137.4,0.029684,0.015704,0.255705,0.000081,  49.860
   137.6,0.029899,0.015892,0.258667,0.000081,  49.838
   137.8,0.030074,0.016089,0.261790,0.000081,  49.837
   138.0,0.030204,0.016271,0.265136,0.000068,  49.837
   138.2,0.030507,0.016453,0.268299,0.000068,  49.835
   138.4,0.030869,0.016625,0.271450,0.000068,  49.839
   138.6,0.031297,0.016746,0.274577,0.000055,  49.834
   138.8,0.031659,0.016825,0.277016,0.000042,  49.839
   139.0,0.032003,0.016882,0.279074,0.000042,  49.841
   139.2,0.032352,0.016907,0.280773,0.000042,  49.841
   139.4,0.032676,0.017073,0.283527,0.000016,  49.844
   139.6,0.032986,0.017274,0.286618,-0.000023,  49.845
   139.8,0.033277,0.017511,0.290095,-0.000026,  49.839
   140.0,0.033563,0.017704,0.293310,-0.000062,  49.838
   140.2,0.033857,0.017899,0.296576,-0.000049,  49.845
   140.4,0.034130,0.018093,0.299915,-0.000036,  49.841
   140.6,0.034429,0.018278,0.302977,-0.000036,  49.840
   140.8,0.034743,0.018466,0.305959,-0.000023,  49.839
   141.0,0.035070,0.018654,0.308818,0.000013,  49.844
   141.2,0.035350,0.018825,0.311544,-0.000010,  49.842
   141.4,0.035619,0.018994,0.314146,0.000003,  49.841
   141.6,0.035868,0.019155,0.316601,0.000003,  49.844
   141.8,0.036103,0.019327,0.319379,0.000016,  49.842
   142.0,0.036346,0.019505,0.322249,0.000003,  49.841
   142.2,0.036599,0.019687,0.325237,0.000026,  49.842
   142.4,0.036840,0.019881,0.328600,0.000003,  49.850
   142.6,0.037088,0.020089,0.332184,-0.000010,  49.848
   142.8,0.037325,0.020306,0.336021,0.000026,  49.849
   143.0,0.037564,0.020473,0.338997,0.000003,  49.848
   143.2,0.037829,0.020620,0.341629,-0.000010,  49.843
   143.4,0.038102,0.020746,0.343933,-0.000010,  49.847
   143.6,0.038391,0.020886,0.346261,-0.000010,  49.847
   143.8,0.038656,0.021025,0.348424,-0.000023,  49.845
   144.0,0.038913,0.021166,0.350386,0.000000,  49.844
   144.2,0.039164,0.021311,0.352683,-0.000036,  49.845
   144.4,0.039406,0.021467,0.355064,-0.000049,  49.841
   144.6,0.039643,0.021625,0.357471,-0.000026,  49.839
   144.8,0.039869,0.021776,0.359697,-0.000075,  49.840
   145.0,0.040097,0.021929,0.361812,-0.000075,  49.839
   145.2,0.040329,0.022085,0.363850,-0.000039,  49.843
   145.4,0.040552,0.022228,0.365857,-0.000052,  49.853
   145.6,0.040760,0.022365,0.367798,-0.000088,  49.858
   145.8,0.040963,0.022506,0.369694,-0.000101,  49.867
   146.0,0.041151,0.022639,0.371500,-0.000101,  49.850
   146.2,0.041329,0.022775,0.373750,-0.000101,  49.843
   146.4,0.041486,0.022906,0.376112,-0.000127,  49.841
   146.6,0.041625,0.023022,0.378619,-0.000127,  49.837
   146.8,0.041823,0.023133,0.380529,-0.000127,  49.833
   147.0,0.042032,0.023237,0.382234,-0.000140,  49.829
   147.2,0.042250,0.023336,0.383694,-0.000153,  49.826
   147.4,0.042444,0.023427,0.385314,-0.000166,  49.829
   147.6,0.042639,0.023519,0.386904,-0.000179,  49.823
   147.8,0.042828,0.023613,0.388453,-0.000192,  49.816
   148.0,0.043002,0.023707,0.390398,-0.000205,  49.815
   148.2,0.043177,0.023803,0.392517,-0.000218,  49.813
   148.4,0.043349,0.023897,0.394791,-0.000231,  49.808
   148.6,0.043507,0.024010,0.396908,-0.000218,  49.802
   148.8,0.043655,0.024127,0.398982,-0.000231,  49.796
   149.0,0.043792,0.024248,0.401040,-0.000243,  49.796
   149.2,0.043956,0.024352,0.402915,-0.000243,  49.786
   149.4,0.044122,0.024456,0.404718,-0.000269,  49.776
   149.6,0.044297,0.024553,0.406373,-0.000295,  49.769
   149.8,0.044452,0.024642,0.407947,-0.000308,  49.766
   150.0,0.044596,0.024728,0.409412,-0.000321,  49.753
   150.2,0.044736,0.024814,0.410747,-0.000347,  49.727
   150.4,0.044865,0.024906,0.412246,-0.000360,  49.723
   150.6,0.044966,0.025001,0.413741,-0.000373,  49.706
   150.8,0.045057,0.025099,0.415219,-0.000386,  49.696
   151.0,0.045133,0.025206,0.417160,-0.000399,  49.685
   151.2,0.045235,0.025326,0.419288,-0.000412,  49.674
   151.4,0.045334,0.025446,0.421615,-0.000425,  49.658
   151.6,0.045455,0.025513,0.423140,-0.000451,  49.652
   151.8,0.045575,0.025564,0.424355,-0.000464,  49.642
   152.0,0.045692,0.025593,0.425219,-0.000454,  49.628
   152.2,0.045827,0.025651,0.426063,-0.000503,  49.601
   152.4,0.045953,0.025712,0.426764,-0.000529,  49.587
   152.6,0.046064,0.025779,0.427252,-0.000532,  49.573
   152.8,0.046181,0.025847,0.428157,-0.000581,  49.556
   153.0,0.046293,0.025917,0.429206,-0.000594,  49.534
   153.2,0.046396,0.025985,0.430315,-0.000607,  49.526
   153.4,0.046493,0.026050,0.431437,-0.000620,  49.505
   153.6,0.046595,0.026115,0.432619,-0.000633,  49.475
   153.8,0.046695,0.026171,0.433798,-0.000672,  49.462
   154.0,0.046795,0.026227,0.434849,-0.000685,  49.458
   154.2,0.046913,0.026291,0.435863,-0.000711,  49.452
   154.4,0.047030,0.026348,0.436793,-0.000736,  49.449
   154.6,0.047159,0.026400,0.437625,-0.000749,  49.416
   154.8,0.047309,0.026454,0.438373,-0.000762,  49.386
   155.0,0.047468,0.026500,0.438993,-0.000740,  49.353
   155.2,0.047642,0.026537,0.439539,-0.000766,  49.326
   155.4,0.047721,0.026575,0.440302,-0.000779,  49.297
   155.6,0.047751,0.026598,0.441037,-0.000804,  49.269
   155.8,0.047742,0.026711,0.441837,-0.000830,  49.257
   156.0,0.047795,0.026862,0.442230,-0.000879,  49.207
   156.2,0.047851,0.027058,0.442466,-0.000892,  49.192
   156.4,0.047916,0.027121,0.442514,-0.000931,  49.163
   156.6,0.047989,0.027148,0.443276,-0.000905,  49.138
   156.8,0.048072,0.027132,0.444344,-0.000866,  49.109
   157.0,0.048160,0.027143,0.445691,-0.000801,  49.057
   157.2,0.048243,0.027147,0.446706,-0.000775,  49.034
   157.4,0.048325,0.027147,0.447671,-0.000801,  48.997
   157.6,0.048411,0.027141,0.448560,-0.000827,  48.956
   157.8,0.048520,0.027175,0.449344,-0.000866,  48.922
   158.0,0.048638,0.027219,0.450034,-0.000944,  48.876
   158.2,0.048768,0.027275,0.450642,-0.001035,  48.838
   158.4,0.048901,0.027313,0.451174,-0.001073,  48.795
   158.6,0.049042,0.027355,0.451652,-0.001112,  48.759
   158.8,0.049187,0.027397,0.452046,-0.001138,  48.704
   159.0,0.049276,0.027454,0.452789,-0.001138,  48.659
   159.2,0.049341,0.027523,0.453683,-0.001151,  48.625
   159.4,0.049389,0.027599,0.454694,-0.001164,  48.568
   159.6,0.049400,0.027680,0.456105,-0.001164,  48.529
   159.8,0.049498,0.027778,0.457836,-0.001164,  48.477
   160.0,0.049620,0.027883,0.459818,-0.001154,  48.406
   160.2,0.049747,0.027934,0.460635,-0.001203,  48.377
   160.4,0.049895,0.027976,0.461008,-0.001216,  48.312
   160.6,0.050048,0.028000,0.460953,-0.001206,  48.263
   160.8,0.050223,0.028048,0.460823,-0.001255,  48.195
   161.0,0.050401,0.028104,0.460467,-0.001268,  48.130
   161.2,0.050581,0.028171,0.459787,-0.001245,  48.074
   161.4,0.050777,0.028248,0.460231,-0.001268,  48.019
   161.6,0.050973,0.028338,0.461133,-0.001268,  47.953
   161.8,0.051165,0.028444,0.462455,-0.001245,  47.892
   162.0,0.051370,0.028549,0.463793,-0.001268,  47.810
   162.2,0.051575,0.028660,0.465383,-0.001255,  47.770
   162.4,0.051777,0.028786,0.467234,-0.001219,  47.704
   162.6,0.051985,0.028904,0.468824,-0.001242,  47.663
   162.8,0.052229,0.029019,0.470402,-0.001242,  47.619
   163.0,0.052482,0.029136,0.471966,-0.001206,  47.569
   163.2,0.052753,0.029265,0.473537,-0.001216,  47.484
   163.4,0.053039,0.029403,0.475099,-0.001203,  47.425
   163.6,0.053337,0.029549,0.476642,-0.001141,  47.349
   163.8,0.053650,0.029669,0.478032,-0.001128,  47.283
   164.0,0.053895,0.029774,0.479356,-0.001125,  47.179
   164.2,0.054110,0.029874,0.480600,-0.001077,  47.119
   164.4,0.054298,0.030098,0.481752,-0.001064,  47.056
   164.6,0.054552,0.030374,0.483068,-0.001038,  46.968
   164.8,0.054825,0.030698,0.484323,-0.001012,  46.881
   165.0,0.055112,0.030876,0.485620,-0.000973,  46.779
   165.2,0.055399,0.031008,0.487537,-0.000918,  46.726
   165.4,0.055699,0.031093,0.489748,-0.000801,  46.636
   165.6,0.056005,0.031208,0.492238,-0.000610,  46.547
   165.8,0.056323,0.031321,0.493969,-0.000581,  46.462
   166.0,0.056651,0.031422,0.495463,-0.000555,  46.350
   166.2,0.056988,0.031520,0.496710,-0.000532,  46.286
   166.4,0.057373,0.031688,0.498943,-0.000568,  46.182
   166.6,0.057785,0.031875,0.501529,-0.000594,  46.081
   166.8,0.058225,0.032090,0.504503,-0.000597,  45.990
   167.0,0.058675,0.032289,0.507369,-0.000620,  45.870
   167.2,0.059137,0.032493,0.510367,-0.000594,  45.795
   167.4,0.059615,0.032701,0.513508,-0.000532,  45.714
   167.6,0.060015,0.032937,0.516803,-0.000529,  45.606
   167.8,0.060381,0.033195,0.520253,-0.000490,  45.508
   168.0,0.060715,0.033464,0.523790,-0.000402,  45.394
   168.2,0.061055,0.033753,0.528051,-0.000373,  45.311
   168.4,0.061377,0.034071,0.532732,-0.000286,  45.207
   168.6,0.061688,0.034410,0.537835,-0.000211,  45.116
   168.8,0.061976,0.034678,0.541594,-0.000182,  45.023
   169.0,0.062415,0.034922,0.544836,-0.000094,  44.901
   169.2,0.062893,0.035150,0.547580,-0.000055,  44.826
   169.4,0.063414,0.035407,0.550671,-0.000026,  44.727
   169.6,0.063903,0.035668,0.553683,0.000026,  44.631
   169.8,0.064386,0.035938,0.556658,0.000091,  44.543
   170.0,0.064882,0.036232,0.560309,0.000120,  44.432
   170.2,0.065372,0.036548,0.564333,0.000185,  44.362
   170.4,0.065857,0.036879,0.568685,0.000273,  44.266
   170.6,0.066358,0.037195,0.572935,0.000302,  44.178
   170.8,0.066847,0.037517,0.577235,0.000367,  44.092
   171.0,0.067324,0.037836,0.581578,0.000455,  44.012
   171.2,0.067807,0.038155,0.585889,0.000484,  43.962
   171.4,0.068208,0.038478,0.590257,0.000562,  43.916
   171.6,0.068563,0.038798,0.594509,0.000650,  43.861
   171.8,0.068872,0.039115,0.598857,0.000679,  43.769
   172.0,0.069179,0.039444,0.603176,0.000744,  43.684
   172.2,0.069457,0.039773,0.607508,0.000796,  43.625
   172.4,0.069711,0.040069,0.611167,0.000848,  43.544
   172.6,0.070197,0.040362,0.614448,0.000900,  43.484
   172.8,0.070790,0.040648,0.617360,0.000952,  43.417
   173.0,0.071483,0.040774,0.619839,0.000978,  43.334
   173.2,0.072018,0.040819,0.622318,0.001030,  43.283
   173.4,0.072523,0.040791,0.624556,0.001070,  43.223
   173.6,0.072997,0.041062,0.626588,0.001096,  43.162
   173.8,0.073428,0.041446,0.630171,0.001043,  43.116
   174.0,0.073828,0.041949,0.634530,0.000939,  43.046
   174.2,0.074191,0.042331,0.639588,0.000783,  42.998
   174.4,0.074560,0.042719,0.644347,0.000796,  42.956
   174.6,0.074918,0.043114,0.649317,0.000861,  42.922
   174.8,0.075259,0.043400,0.654423,0.001014,  42.868
   175.0,0.075667,0.043642,0.658807,0.001070,  42.819
   175.2,0.076098,0.043826,0.662800,0.001187,  42.787
   175.4,0.076554,0.043963,0.666449,0.001353,  42.761
   175.6,0.076985,0.044195,0.669888,0.001408,  42.744
   175.8,0.077420,0.044435,0.673012,0.001460,  42.712
   176.0,0.077852,0.044680,0.675720,0.001522,  42.691
   176.2,0.078171,0.044942,0.679050,0.001525,  42.681
   176.4,0.078433,0.045216,0.682451,0.001552,  42.671
   176.6,0.078635,0.045503,0.685947,0.001565,  42.651
   176.8,0.078869,0.045801,0.690229,0.001578,  42.646
   177.0,0.079094,0.046121,0.694908,0.001604,  42.647
   177.2,0.079299,0.046453,0.700068,0.001617,  42.654
   177.4,0.079493,0.046679,0.703613,0.001656,  42.664
   177.6,0.079736,0.046860,0.706482,0.001682,  42.672
   177.8,0.080009,0.046997,0.708716,0.001695,  42.695
   178.0,0.080292,0.047168,0.711353,0.001708,  42.718
   178.2,0.080545,0.047338,0.713850,0.001721,  42.732
   178.4,0.080784,0.047501,0.716201,0.001757,  42.754
   178.6,0.081019,0.047683,0.718793,0.001721,  42.777
   178.8,0.081238,0.047880,0.721357,0.001734,  42.821
   179.0,0.081438,0.048085,0.723948,0.001770,  42.860
   179.2,0.081633,0.048252,0.726480,0.001734,  42.901
   179.4,0.081820,0.048413,0.728856,0.001747,  42.939
   179.6,0.081992,0.048559,0.731246,0.001770,  42.964
   179.8,0.082165,0.048702,0.733637,0.001734,  43.018
   180.0,0.082241,0.048855,0.735920,0.001734,  43.059
   180.2,0.082257,0.049003,0.738158,0.001744,  43.096
   180.4,0.082231,0.049129,0.740192,0.001695,  43.140
   180.6,0.082270,0.049244,0.742062,0.001695,  43.190
   180.8,0.082311,0.049358,0.743834,0.001682,  43.239
   181.0,0.082372,0.049460,0.745242,0.001669,  43.314
   181.2,0.082554,0.049550,0.746537,0.001669,  43.355
   181.4,0.082799,0.049627,0.747546,0.001656,  43.419
   181.6,0.083113,0.049567,0.748374,0.001630,  43.478
   181.8,0.083285,0.049443,0.749091,0.001617,  43.557
   182.0,0.083432,0.049242,0.749631,0.001565,  43.648
   182.2,0.083534,0.049323,0.750000,0.001512,  43.704
   182.4,0.083611,0.049516,0.751368,0.001369,  43.773
   182.6,0.083659,0.049817,0.753041,0.001148,  43.858
   182.8,0.083681,0.049979,0.755080,0.000910,  43.945
   183.0,0.083716,0.050116,0.756628,0.000835,  44.043
   183.2,0.083739,0.050236,0.758060,0.000887,  44.114
   183.4,0.083755,0.050323,0.759370,0.001053,  44.192
   183.6,0.083825,0.050376,0.759429,0.001083,  44.283
   183.8,0.083908,0.050406,0.758705,0.001148,  44.379
   184.0,0.084020,0.050397,0.757336,0.001262,  44.489
   184.2,0.084094,0.050423,0.757626,0.001252,  44.566
   184.4,0.084145,0.050448,0.758431,0.001278,  44.663
   184.6,0.084203,0.050463,0.759695,0.001301,  44.756
   184.8,0.084180,0.050507,0.760547,0.001252,  44.851
   185.0,0.084107,0.050565,0.761419,0.001239,  44.975
   185.2,0.084001,0.050634,0.762255,0.001249,  45.055
   185.4,0.083959,0.050703,0.763578,0.001200,  45.147
   185.6,0.083931,0.050781,0.765150,0.001174,  45.242
   185.8,0.083924,0.050863,0.766926,0.001196,  45.326
   186.0,0.083905,0.050862,0.767291,0.001161,  45.441
   186.2,0.083886,0.050827,0.767044,0.001148,  45.520
   186.4,0.083879,0.050755,0.766136,0.001170,  45.619
   186.6,0.083870,0.050733,0.765772,0.001122,  45.716
   186.8,0.083851,0.050729,0.765279,0.001131,  45.817
   187.0,0.083822,0.050729,0.764670,0.001141,  45.926
   187.2,0.083787,0.050722,0.763988,0.001092,  46.003
   187.4,0.083751,0.050727,0.763146,0.001102,  46.094
   187.6,0.083700,0.050725,0.762270,0.001089,  46.177
   187.8,0.083652,0.050716,0.762069,0.001040,  46.267
   188.0,0.083604,0.050709,0.762137,0.001050,  46.372
   188.2,0.083553,0.050693,0.762469,0.001024,  46.429
   188.4,0.083499,0.050673,0.762371,0.000975,  46.508
   188.6,0.083428,0.050657,0.762048,0.000936,  46.561
   188.8,0.083345,0.050632,0.761548,0.000910,  46.635
   189.0,0.083253,0.050605,0.760736,0.000861,  46.706
   189.2,0.083182,0.050579,0.759659,0.000848,  46.770
   189.4,0.083112,0.050550,0.758257,0.000858,  46.856
   189.6,0.083051,0.050523,0.757652,0.000796,  46.919
   189.8,0.083013,0.050505,0.757320,0.000770,  47.010
   190.0,0.082988,0.050483,0.757260,0.000767,  47.104
   190.2,0.082984,0.050423,0.757224,0.000741,  47.153
   190.4,0.082943,0.050350,0.757369,0.000692,  47.235
   190.6,0.082892,0.050253,0.757636,0.000689,  47.324
   190.8,0.082831,0.050231,0.757309,0.000676,  47.391
   191.0,0.082748,0.050237,0.756682,0.000598,  47.484
   191.2,0.082646,0.050273,0.755892,0.000494,  47.553
   191.4,0.082531,0.050264,0.754749,0.000364,  47.616
   191.6,0.082429,0.050254,0.753897,0.000315,  47.696
   191.8,0.082321,0.050237,0.752987,0.000367,  47.774
   192.0,0.082222,0.050203,0.751965,0.000481,  47.848
   192.2,0.082158,0.050157,0.750826,0.000471,  47.911
   192.4,0.082117,0.050098,0.749530,0.000497,  47.975
   192.6,0.082091,0.050056,0.748120,0.000546,  48.045
   192.8,0.082024,0.050010,0.746685,0.000523,  48.117
   193.0,0.081942,0.049970,0.745195,0.000536,  48.185
   193.2,0.081852,0.049928,0.743646,0.000572,  48.241
   193.4,0.081715,0.049897,0.742517,0.000536,  48.293
   193.6,0.081543,0.049874,0.741577,0.000536,  48.365
   193.8,0.081346,0.049861,0.740820,0.000546,  48.410
   194.0,0.081213,0.049841,0.740297,0.000497,  48.484
   194.2,0.081092,0.049819,0.739948,0.000497,  48.520
   194.4,0.080987,0.049806,0.739670,0.000533,  48.579
   194.6,0.080891,0.049742,0.738447,0.000510,  48.623
   194.8,0.080809,0.049654,0.736760,0.000497,  48.668
   195.0,0.080739,0.049545,0.734563,0.000507,  48.733
   195.2,0.080675,0.049465,0.732789,0.000471,  48.759
   195.4,0.080580,0.049395,0.730977,0.000471,  48.819
   195.6,0.080472,0.049331,0.729071,0.000481,  48.854
   195.8,0.080355,0.049266,0.727355,0.000445,  48.886
   196.0,0.080244,0.049213,0.725558,0.000445,  48.941
   196.2,0.080126,0.049165,0.723774,0.000468,  48.969
   196.4,0.080022,0.049105,0.722279,0.000432,  49.003
   196.6,0.079908,0.049047,0.720949,0.000419,  49.047
   196.8,0.079777,0.048992,0.719661,0.000442,  49.077
   197.0,0.079657,0.048925,0.718359,0.000393,  49.105
   197.2,0.079553,0.048870,0.717104,0.000393,  49.122
   197.4,0.079448,0.048813,0.715840,0.000416,  49.146
   197.6,0.079363,0.048755,0.714500,0.000380,  49.173
   197.8,0.079255,0.048693,0.713066,0.000367,  49.195
   198.0,0.079141,0.048632,0.711486,0.000403,  49.226
   198.2,0.079027,0.048579,0.710183,0.000380,  49.240
   198.4,0.078926,0.048526,0.708950,0.000367,  49.267
   198.6,0.078821,0.048475,0.707738,0.000390,  49.301
   198.8,0.078733,0.048415,0.707044,0.000377,  49.322
   199.0,0.078625,0.048347,0.706524,0.000341,  49.351
   199.2,0.078511,0.048291,0.706273,0.000364,  49.366
   199.4,0.078401,0.048238,0.705146,0.000351,  49.384
   199.6,0.078265,0.048187,0.703856,0.000312,  49.417
   199.8,0.078117,0.048140,0.702132,0.000247,  49.434
   200.0,0.077962,0.048085,0.700203,0.000182,  49.461
   200.2,0.077814,0.048032,0.698563,0.000159,  49.472
   200.4,0.077659,0.047973,0.696778,0.000185,  49.491
   200.6,0.077505,0.047902,0.694954,0.000237,  49.506
   200.8,0.077391,0.047827,0.693154,0.000263,  49.535
   201.0,0.077287,0.047745,0.691408,0.000276,  49.552
   201.2,0.077193,0.047677,0.689610,0.000312,  49.561
   201.4,0.077083,0.047608,0.687552,0.000289,  49.579
   201.6,0.076957,0.047551,0.685368,0.000302,  49.592
   201.8,0.076815,0.047494,0.683022,0.000351,  49.601
   202.0,0.076639,0.047435,0.681306,0.000341,  49.615
   202.2,0.076437,0.047377,0.679787,0.000341,  49.622
   202.4,0.076208,0.047320,0.678374,0.000377,  49.635
   202.6,0.076038,0.047265,0.677123,0.000354,  49.656
   202.8,0.075881,0.047210,0.676031,0.000341,  49.667
   203.0,0.075740,0.047159,0.675048,0.000377,  49.676
   203.2,0.075611,0.047060,0.673301,0.000354,  49.682
   203.4,0.075495,0.046953,0.671215,0.000354,  49.690
   203.6,0.075388,0.046821,0.668880,0.000390,  49.692
   203.8,0.075303,0.046720,0.666809,0.000367,  49.707
   204.0,0.075162,0.046628,0.664754,0.000354,  49.706
   204.2,0.075018,0.046544,0.662708,0.000377,  49.716
   204.4,0.074868,0.046454,0.660853,0.000354,  49.719
   204.6,0.074714,0.046370,0.659060,0.000341,  49.722
   204.8,0.074560,0.046289,0.657371,0.000377,  49.727
   205.0,0.074404,0.046203,0.655634,0.000341,  49.732
   205.2,0.074241,0.046122,0.653809,0.000341,  49.737
   205.4,0.074075,0.046038,0.651991,0.000364,  49.752
   205.6,0.073922,0.045952,0.650282,0.000341,  49.776
   205.8,0.073784,0.045869,0.648573,0.000354,  49.784
   206.0,0.073656,0.045781,0.646888,0.000390,  49.771
   206.2,0.073550,0.045691,0.645111,0.000367,  49.763
   206.4,0.073406,0.045601,0.643295,0.000354,  49.764
   206.6,0.073253,0.045517,0.641452,0.000377,  49.773
   206.8,0.073094,0.045433,0.639967,0.000354,  49.774
   207.0,0.072944,0.045364,0.638614,0.000341,  49.778
   207.2,0.072798,0.045291,0.637448,0.000377,  49.781
   207.4,0.072645,0.045201,0.636168,0.000341,  49.785
   207.6,0.072502,0.045108,0.634831,0.000328,  49.787
   207.8,0.072349,0.045014,0.633568,0.000338,  49.791
   208.0,0.072193,0.044928,0.632128,0.000312,  49.794
   208.2,0.072022,0.044841,0.630670,0.000263,  49.795
   208.4,0.071832,0.044760,0.629051,0.000247,  49.795
   208.6,0.071624,0.044677,0.627459,0.000195,  49.798
   208.8,0.071427,0.044592,0.625691,0.000195,  49.800
   209.0,0.071232,0.044500,0.623848,0.000221,  49.802
   209.2,0.071039,0.044397,0.621929,0.000273,  49.803
   209.4,0.070868,0.044293,0.620001,0.000263,  49.805
   209.6,0.070706,0.044181,0.618005,0.000276,  49.809
   209.8,0.070570,0.044087,0.615925,0.000312,  49.813
   210.0,0.070405,0.043995,0.613711,0.000289,  49.813
   210.2,0.070225,0.043910,0.611439,0.000302,  49.813
   210.4,0.070055,0.043833,0.609033,0.000338,  49.813
   210.6,0.069857,0.043748,0.607110,0.000315,  49.814
   210.8,0.069646,0.043662,0.605409,0.000315,  49.818
   211.0,0.069424,0.043581,0.603873,0.000325,  49.816
   211.2,0.069226,0.043487,0.602311,0.000289,  49.822
   211.4,0.069030,0.043396,0.600888,0.000302,  49.825
   211.6,0.068848,0.043311,0.599517,0.000338,  49.824
   211.8,0.068666,0.043194,0.597619,0.000302,  49.821
   212.0,0.068480,0.043056,0.595443,0.000315,  49.820
   212.2,0.068311,0.042904,0.592976,0.000338,  49.822
   212.4,0.068160,0.042791,0.590225,0.000302,  49.818
   212.6,0.068011,0.042680,0.587267,0.000315,  49.823
   212.8,0.067879,0.042577,0.583980,0.000338,  49.826
   213.0,0.067759,0.042468,0.582075,0.000302,  49.830
   213.2,0.067586,0.042368,0.580703,0.000315,  49.826
   213.4,0.067401,0.042266,0.579858,0.000338,  49.831
   213.6,0.067198,0.042161,0.578310,0.000302,  49.831
   213.8,0.067010,0.042056,0.576625,0.000315,  49.837
   214.0,0.066822,0.041951,0.574851,0.000338,  49.844
   214.2,0.066638,0.041838,0.573191,0.000302,  49.852
   214.4,0.066478,0.041723,0.571548,0.000351,  49.859
   214.6,0.066321,0.041607,0.569806,0.000387,  49.837
   214.8,0.066176,0.041494,0.567993,0.000351,  49.835
   215.0,0.066013,0.041386,0.566154,0.000374,  49.833
   215.2,0.065838,0.041276,0.564174,0.000361,  49.834
   215.4,0.065654,0.041178,0.562545,0.000325,  49.836
   215.6,0.065482,0.041091,0.561131,0.000338,  49.838
   215.8,0.065305,0.041008,0.559761,0.000338,  49.833
   216.0,0.065136,0.040903,0.558177,0.000289,  49.831
   216.2,0.064959,0.040792,0.556542,0.000289,  49.834
   216.4,0.064775,0.040675,0.554849,0.000312,  49.836
   216.6,0.064595,0.040573,0.553027,0.000250,  49.833
   216.8,0.064396,0.040467,0.551008,0.000224,  49.838
   217.0,0.064175,0.040372,0.548942,0.000221,  49.834
   217.2,0.063952,0.040268,0.547350,0.000208,  49.834
   217.4,0.063738,0.040157,0.545912,0.000198,  49.837
   217.6,0.063506,0.040047,0.544628,0.000234,  49.833
   217.8,0.063286,0.039921,0.543531,0.000273,  49.830
   218.0,0.063085,0.039788,0.541608,0.000286,  49.827
   218.2,0.062886,0.039659,0.539425,0.000322,  49.828
   218.4,0.062707,0.039527,0.537041,0.000335,  49.826
   218.6,0.062515,0.039391,0.534894,0.000325,  49.822
   218.8,0.062326,0.039259,0.532648,0.000361,  49.824
   219.0,0.062138,0.039158,0.530409,0.000361,  49.826
   219.2,0.061925,0.039062,0.528513,0.000325,  49.824
   219.4,0.061700,0.038992,0.526697,0.000361,  49.825
   219.6,0.061460,0.038934,0.525042,0.000335,  49.824
   219.8,0.061244,0.038828,0.523148,0.000299,  49.817
   220.0,0.061031,0.038716,0.521175,0.000335,  49.819
   220.2,0.060822,0.038586,0.519124,0.000348,  49.818
   220.4,0.060610,0.038454,0.517139,0.000312,  49.813
   220.6,0.060397,0.038311,0.515105,0.000312,  49.821
   220.8,0.060182,0.038164,0.513021,0.000312,  49.821
   221.0,0.059979,0.038033,0.511137,0.000289,  49.823
   221.2,0.059773,0.037905,0.509328,0.000302,  49.823
   221.4,0.059576,0.037785,0.507567,0.000338,  49.818
   221.6,0.059397,0.037665,0.505750,0.000315,  49.824
   221.8,0.059237,0.037545,0.503874,0.000315,  49.822
   222.0,0.059092,0.037425,0.502018,0.000325,  49.825
   222.2,0.058966,0.037300,0.500142,0.000276,  49.826
   222.4,0.058778,0.037178,0.498174,0.000276,  49.834
   222.6,0.058576,0.037051,0.496183,0.000312,  49.841
   222.8,0.058356,0.036924,0.494233,0.000263,  49.851
   223.0,0.058184,0.036803,0.492331,0.000263,  49.841
   223.2,0.058027,0.036678,0.490377,0.000312,  49.825
   223.4,0.057886,0.036552,0.488453,0.000276,  49.827
   223.6,0.057708,0.036423,0.486506,0.000276,  49.820
   223.8,0.057515,0.036290,0.484578,0.000312,  49.829
   224.0,0.057307,0.036180,0.483054,0.000276,  49.820
   224.2,0.057115,0.036084,0.481688,0.000276,  49.823
   224.4,0.056919,0.035993,0.480556,0.000312,  49.822
   224.6,0.056726,0.035877,0.479077,0.000276,  49.823
   224.8,0.056534,0.035757,0.477507,0.000250,  49.823
   225.0,0.056332,0.035629,0.475854,0.000260,  49.826
   225.2,0.056141,0.035512,0.474013,0.000224,  49.825
   225.4,0.055931,0.035405,0.472028,0.000211,  49.820
   225.6,0.055708,0.035299,0.469834,0.000221,  49.821
   225.8,0.055487,0.035186,0.468129,0.000221,  49.825
   226.0,0.055259,0.035068,0.466585,0.000185,  49.822
   226.2,0.055025,0.034949,0.465213,0.000247,  49.824
   226.4,0.054798,0.034827,0.463980,0.000260,  49.820
   226.6,0.054589,0.034698,0.462059,0.000273,  49.820
   226.8,0.054379,0.034574,0.459933,0.000273,  49.826
   227.0,0.054182,0.034437,0.457575,0.000260,  49.824
   227.2,0.053981,0.034296,0.455489,0.000237,  49.819
   227.4,0.053785,0.034149,0.453347,0.000237,  49.826
   227.6,0.053591,0.034038,0.451210,0.000286,  49.824
   227.8,0.053383,0.033938,0.448822,0.000263,  49.827
   228.0,0.053159,0.033854,0.446325,0.000263,  49.825
   228.2,0.052924,0.033784,0.443652,0.000299,  49.831
   228.4,0.052710,0.033673,0.442001,0.000276,  49.828
   228.6,0.052493,0.033553,0.440820,0.000276,  49.826
   228.8,0.052266,0.033430,0.440007,0.000299,  49.822
   229.0,0.052048,0.033295,0.438385,0.000289,  49.823
   229.2,0.051837,0.033153,0.436561,0.000289,  49.825
   229.4,0.051629,0.033006,0.434521,0.000325,  49.823
   229.6,0.051421,0.032868,0.432714,0.000302,  49.826
   229.8,0.051218,0.032729,0.430931,0.000302,  49.826
   230.0,0.051029,0.032598,0.429184,0.000325,  49.823
   230.2,0.050848,0.032466,0.427365,0.000276,  49.824
   230.4,0.050684,0.032328,0.425532,0.000276,  49.830
   230.6,0.050527,0.032199,0.423690,0.000312,  49.828
   230.8,0.050388,0.032071,0.421910,0.000263,  49.830
   231.0,0.050202,0.031950,0.420131,0.000263,  49.843
   231.2,0.049995,0.031831,0.418325,0.000276,  49.848
   231.4,0.049773,0.031699,0.416474,0.000276,  49.855
   231.6,0.049593,0.031570,0.414621,0.000276,  49.850
   231.8,0.049415,0.031446,0.412679,0.000263,  49.840
   232.0,0.049264,0.031314,0.410220,0.000276,  49.828
   232.2,0.049078,0.031181,0.407505,0.000276,  49.829
   232.4,0.048874,0.031051,0.404483,0.000263,  49.833
   232.6,0.048662,0.030949,0.403059,0.000276,  49.833
   232.8,0.048467,0.030858,0.402294,0.000276,  49.830
   233.0,0.048275,0.030782,0.402170,0.000299,  49.833
   233.2,0.048081,0.030670,0.400966,0.000263,  49.830
   233.4,0.047883,0.030534,0.399564,0.000250,  49.834
   233.6,0.047686,0.030391,0.397940,0.000247,  49.838
   233.8,0.047492,0.030266,0.396322,0.000211,  49.837
   234.0,0.047287,0.030143,0.394507,0.000211,  49.831
   234.2,0.047065,0.030025,0.392586,0.000221,  49.837
   234.4,0.046851,0.029897,0.391083,0.000221,  49.837
   234.6,0.046637,0.029772,0.389747,0.000198,  49.839
   234.8,0.046410,0.029653,0.388524,0.000234,  49.834
   235.0,0.046194,0.029527,0.387414,0.000247,  49.838
   235.2,0.045988,0.029393,0.385676,0.000260,  49.836
   235.4,0.045774,0.029268,0.383747,0.000260,  49.838
   235.6,0.045581,0.029137,0.381641,0.000260,  49.836
   235.8,0.045379,0.028998,0.379641,0.000224,  49.836
   236.0,0.045161,0.028852,0.377614,0.000224,  49.838
   236.2,0.044956,0.028737,0.375515,0.000247,  49.840
   236.4,0.044746,0.028638,0.373593,0.000224,  49.837
   236.6,0.044529,0.028549,0.371747,0.000224,  49.844
   236.8,0.044317,0.028482,0.369952,0.000260,  49.838
   237.0,0.044112,0.028370,0.368402,0.000224,  49.840
   237.2,0.043908,0.028253,0.366975,0.000224,  49.840
   237.4,0.043712,0.028125,0.365700,0.000247,  49.838
   237.6,0.043517,0.028000,0.364060,0.000211,  49.841
   237.8,0.043319,0.027875,0.362292,0.000224,  49.843
   238.0,0.043121,0.027744,0.360380,0.000247,  49.844
   238.2,0.042926,0.027615,0.358627,0.000224,  49.838
   238.4,0.042737,0.027486,0.356935,0.000224,  49.841
   238.6,0.042546,0.027363,0.355196,0.000260,  49.839
   238.8,0.042383,0.027239,0.353410,0.000237,  49.842
   239.0,0.042223,0.027113,0.351620,0.000224,  49.839
   239.2,0.042093,0.026990,0.349808,0.000260,  49.843
   239.4,0.041958,0.026868,0.348133,0.000237,  49.845
   239.6,0.041772,0.026751,0.346493,0.000224,  49.857
   239.8,0.041581,0.026633,0.344929,0.000260,  49.854
   240.0,0.041366,0.026509,0.343243,0.000237,  49.863
   240.2,0.041201,0.026381,0.341511,0.000237,  49.857
   240.4,0.041050,0.026256,0.339718,0.000237,  49.845
   240.6,0.040914,0.026134,0.338006,0.000250,  49.844
   240.8,0.040734,0.026006,0.336323,0.000250,  49.846
   241.0,0.040540,0.025877,0.334664,0.000237,  49.843
   241.2,0.040329,0.025760,0.333427,0.000250,  49.839
   241.4,0.040141,0.025641,0.332397,0.000250,  49.849
   241.6,0.039953,0.025539,0.331619,0.000237,  49.842
   241.8,0.039767,0.025428,0.330220,0.000237,  49.851
   242.0,0.039586,0.025311,0.328651,0.000211,  49.847
   242.2,0.039402,0.025205,0.326886,0.000208,  49.845
   242.4,0.039212,0.025090,0.325453,0.000195,  49.851
   242.6,0.039012,0.024974,0.324069,0.000159,  49.848
   242.8,0.038819,0.024861,0.322780,0.000195,  49.853
   243.0,0.038607,0.024748,0.321511,0.000195,  49.848
   243.2,0.038405,0.024642,0.319941,0.000195,  49.851
   243.4,0.038196,0.024534,0.318294,0.000195,  49.856
   243.6,0.038001,0.024420,0.316539,0.000208,  49.850
   243.8,0.037811,0.024300,0.314604,0.000185,  49.856
   244.0,0.037612,0.024177,0.312464,0.000198,  49.852
   244.2,0.037432,0.024059,0.310193,0.000221,  49.852
   244.4,0.037248,0.023932,0.308458,0.000185,  49.854
   244.6,0.037067,0.023800,0.306936,0.000211,  49.855
   244.8,0.036892,0.023696,0.305557,0.000211,  49.857
   245.0,0.036703,0.023602,0.304099,0.000211,  49.856
   245.2,0.036505,0.023514,0.302685,0.000224,  49.854
   245.4,0.036301,0.023441,0.301314,0.000247,  49.855
   245.6,0.036109,0.023339,0.299939,0.000211,  49.848
   245.8,0.035917,0.023231,0.298541,0.000211,  49.849
   246.0,0.035725,0.023117,0.297153,0.000234,  49.850
   246.2,0.035543,0.023010,0.295698,0.000198,  49.848
   246.4,0.035357,0.022891,0.294192,0.000198,  49.845
   246.6,0.035165,0.022773,0.292640,0.000234,  49.844
   246.8,0.034991,0.022656,0.291088,0.000198,  49.846
   247.0,0.034817,0.022535,0.289513,0.000198,  49.841
   247.2,0.034643,0.022424,0.287934,0.000234,  49.840
   247.4,0.034485,0.022310,0.286434,0.000198,  49.837
   247.6,0.034348,0.022192,0.284912,0.000198,  49.836
   247.8,0.034216,0.022079,0.283463,0.000234,  49.835
   248.0,0.034092,0.021960,0.282046,0.000198,  49.841
   248.2,0.033929,0.021848,0.280635,0.000198,  49.844
   248.4,0.033763,0.021731,0.279268,0.000234,  49.852
   248.6,0.033590,0.021615,0.277768,0.000198,  49.860
   248.8,0.033465,0.021504,0.276167,0.000198,  49.846
   249.0,0.033347,0.021397,0.274535,0.000221,  49.835
   249.2,0.033260,0.021281,0.272691,0.000185,  49.832
   249.4,0.033097,0.021170,0.270727,0.000198,  49.832
   249.6,0.032900,0.021057,0.268620,0.000221,  49.830
   249.8,0.032688,0.020949,0.267406,0.000185,  49.836
   250.0,0.032511,0.020841,0.266589,0.000185,  49.835
   250.2,0.032337,0.020741,0.266134,0.000208,  49.833
   250.4,0.032179,0.020642,0.264705,0.000159,  49.834
   250.6,0.032014,0.020543,0.262935,0.000146,  49.834
   250.8,0.031852,0.020444,0.260875,0.000169,  49.834
   251.0,0.031697,0.020343,0.259226,0.000133,  49.832
   251.2,0.031521,0.020243,0.257604,0.000120,  49.840
   251.4,0.031340,0.020144,0.256020,0.000169,  49.835
   251.6,0.031150,0.020045,0.254874,0.000169,  49.837
   251.8,0.030971,0.019945,0.253986,0.000146,  49.836
   252.0,0.030784,0.019845,0.253327,0.000169,  49.838
   252.2,0.030605,0.019746,0.252909,0.000169,  49.836
   252.4,0.030436,0.019640,0.251747,0.000182,  49.839
   252.6,0.030269,0.019536,0.250436,0.000182,  49.840
   252.8,0.030111,0.019426,0.248992,0.000195,  49.846
   253.0,0.029947,0.019316,0.247627,0.000159,  49.844
   253.2,0.029777,0.019207,0.246253,0.000159,  49.847
   253.4,0.029616,0.019111,0.244853,0.000195,  49.843
   253.6,0.029450,0.019022,0.243494,0.000159,  49.845
   253.8,0.029276,0.018950,0.242138,0.000159,  49.849
   254.0,0.029106,0.018882,0.240786,0.000195,  49.853
   254.2,0.028940,0.018787,0.239439,0.000159,  49.852
   254.4,0.028773,0.018688,0.238096,0.000195,  49.854
   254.6,0.028599,0.018589,0.236751,0.000218,  49.858
   254.8,0.028432,0.018493,0.235483,0.000195,  49.857
   255.0,0.028271,0.018388,0.234250,0.000231,  49.858
   255.2,0.028111,0.018285,0.233025,0.000231,  49.859
   255.4,0.027949,0.018186,0.231762,0.000195,  49.861
   255.6,0.027791,0.018079,0.230491,0.000231,  49.863
   255.8,0.027652,0.017971,0.229182,0.000231,  49.862
   256.0,0.027526,0.017868,0.227425,0.000195,  49.862
   256.2,0.027402,0.017768,0.225410,0.000231,  49.861
   256.4,0.027302,0.017670,0.223177,0.000231,  49.866
   256.6,0.027203,0.017573,0.221879,0.000195,  49.870
   256.8,0.027069,0.017480,0.220899,0.000231,  49.876
   257.0,0.026932,0.017386,0.220236,0.000231,  49.883
   257.2,0.026768,0.017287,0.219207,0.000195,  49.900
   257.4,0.026667,0.017190,0.218169,0.000195,  49.888
   257.6,0.026582,0.017098,0.217087,0.000195,  49.885
   257.8,0.026526,0.017010,0.215984,0.000159,  49.884
   258.0,0.026386,0.016912,0.214872,0.000159,  49.865
   258.2,0.026203,0.016824,0.213734,0.000195,  49.867
   258.4,0.026005,0.016737,0.212893,0.000159,  49.864
   258.6,0.025848,0.016644,0.212191,0.000159,  49.864
   258.8,0.025693,0.016559,0.211589,0.000182,  49.858
   259.0,0.025554,0.016469,0.210376,0.000146,  49.857
   259.2,0.025406,0.016374,0.208900,0.000120,  49.855
   259.4,0.025254,0.016287,0.207181,0.000117,  49.852
   259.6,0.025115,0.016202,0.205912,0.000081,  49.857
   259.8,0.024965,0.016111,0.204742,0.000117,  49.855
   260.0,0.024804,0.016033,0.203635,0.000153,  49.860
   260.2,0.024655,0.015946,0.202633,0.000166,  49.856
   260.4,0.024504,0.015864,0.201707,0.000143,  49.856
   260.6,0.024349,0.015785,0.200890,0.000179,  49.854
   260.8,0.024196,0.015697,0.200152,0.000156,  49.854
   261.0,0.024048,0.015600,0.199025,0.000133,  49.851
   261.2,0.023900,0.015513,0.197801,0.000133,  49.849
   261.4,0.023757,0.015421,0.196481,0.000156,  49.850
   261.6,0.023620,0.015324,0.194943,0.000133,  49.852
   261.8,0.023480,0.015233,0.193249,0.000133,  49.852
   262.0,0.023355,0.015145,0.191418,0.000169,  49.849
   262.2,0.023216,0.015052,0.190019,0.000146,  49.850
   262.4,0.023065,0.014966,0.188769,0.000146,  49.851
   262.6,0.022921,0.014895,0.187635,0.000195,  49.845
   262.8,0.022782,0.014830,0.186722,0.000159,  49.849
   263.0,0.022640,0.014774,0.185964,0.000159,  49.848
   263.2,0.022513,0.014723,0.185389,0.000195,  49.845
   263.4,0.022377,0.014640,0.184528,0.000159,  49.848
   263.6,0.022244,0.014546,0.183574,0.000195,  49.845
   263.8,0.022120,0.014448,0.182548,0.000231,  49.843
   264.0,0.021989,0.014359,0.181507,0.000195,  49.846
   264.2,0.021855,0.014267,0.180390,0.000231,  49.842
   264.4,0.021725,0.014176,0.179223,0.000231,  49.843
   264.6,0.021607,0.014095,0.178220,0.000195,  49.841
   264.8,0.021507,0.014011,0.177252,0.000231,  49.838
   265.0,0.021410,0.013925,0.176333,0.000231,  49.843
   265.2,0.021334,0.013844,0.175313,0.000195,  49.842
   265.4,0.021205,0.013760,0.174244,0.000231,  49.854
   265.6,0.021073,0.013679,0.173128,0.000218,  49.859
   265.8,0.020925,0.013595,0.172125,0.000195,  49.863
   266.0,0.020839,0.013516,0.171134,0.000218,  49.844
   266.2,0.020763,0.013445,0.170175,0.000205,  49.839
   266.4,0.020720,0.013358,0.169264,0.000182,  49.832
   266.6,0.020607,0.013274,0.168396,0.000218,  49.832
   266.8,0.020466,0.013190,0.167544,0.000218,  49.832
   267.0,0.020303,0.013118,0.166789,0.000195,  49.831
   267.2,0.020176,0.013053,0.166115,0.000218,  49.832
   267.4,0.020052,0.012997,0.165516,0.000227,  49.833
   267.6,0.019930,0.012926,0.164539,0.000192,  49.825
   267.8,0.019809,0.012847,0.163435,0.000166,  49.822
   268.0,0.019688,0.012763,0.162189,0.000127,  49.825
   268.2,0.019573,0.012692,0.161122,0.000091,  49.830
   268.4,0.019448,0.012617,0.160036,0.000140,  49.825
   268.6,0.019315,0.012541,0.158937,0.000140,  49.824
   268.8,0.019188,0.012468,0.157899,0.000117,  49.825
   269.0,0.019064,0.012394,0.156894,0.000130,  49.824
   269.2,0.018937,0.012322,0.155867,0.000143,  49.823
   269.4,0.018808,0.012245,0.154972,0.000143,  49.818
   269.6,0.018687,0.012169,0.154149,0.000120,  49.815
   269.8,0.018566,0.012093,0.153393,0.000120,  49.818
   270.0,0.018442,0.012015,0.152698,0.000143,  49.819
   270.2,0.018326,0.011942,0.151747,0.000120,  49.817
   270.4,0.018213,0.011861,0.150732,0.000107,  49.817
   270.6,0.018103,0.011781,0.149666,0.000143,  49.816
   270.8,0.017988,0.011699,0.148695,0.000120,  49.813
   271.0,0.017863,0.011620,0.147767,0.000107,  49.815
   271.2,0.017742,0.011557,0.146821,0.000143,  49.817
   271.4,0.017630,0.011500,0.145918,0.000120,  49.814
   271.6,0.017508,0.011461,0.145029,0.000107,  49.813
   271.8,0.017399,0.011429,0.144147,0.000143,  49.814
   272.0,0.017289,0.011360,0.143233,0.000120,  49.808
   272.2,0.017173,0.011289,0.142305,0.000143,  49.809
   272.4,0.017070,0.011204,0.141357,0.000179,  49.812
   272.6,0.016963,0.011131,0.140468,0.000156,  49.808
   272.8,0.016849,0.011061,0.139612,0.000179,  49.809
   273.0,0.016746,0.010991,0.138779,0.000179,  49.811
   273.2,0.016653,0.010926,0.137930,0.000156,  49.810
   273.4,0.016564,0.010855,0.137083,0.000143,  49.808
   273.6,0.016494,0.010787,0.136226,0.000143,  49.809
   273.8,0.016425,0.010717,0.135383,0.000120,  49.819
   274.0,0.016324,0.010643,0.134520,0.000107,  49.826
   274.2,0.016217,0.010574,0.133659,0.000143,  49.835
   274.4,0.016106,0.010502,0.132669,0.000120,  49.833
   274.6,0.016024,0.010431,0.131606,0.000107,  49.817
   274.8,0.015955,0.010371,0.130458,0.000143,  49.815
   275.0,0.015898,0.010302,0.129574,0.000107,  49.820
   275.2,0.015805,0.010233,0.128768,0.000130,  49.818
   275.4,0.015698,0.010167,0.128053,0.000153,  49.816
   275.6,0.015578,0.010117,0.127561,0.000130,  49.824
   275.8,0.015480,0.010067,0.127231,0.000166,  49.823
   276.0,0.015381,0.010030,0.127069,0.000179,  49.822
   276.2,0.015292,0.009972,0.126340,0.000130,  49.826
   276.4,0.015196,0.009900,0.125391,0.000127,  49.828
   276.6,0.015092,0.009818,0.124267,0.000075,  49.833
   276.8,0.015000,0.009756,0.123397,0.000039,  49.829
   277.0,0.014904,0.009690,0.122566,0.000039,  49.833
   277.2,0.014799,0.009626,0.121760,0.000039,  49.835
   277.4,0.014705,0.009561,0.120922,0.000003,  49.833
   277.6,0.014609,0.009504,0.120103,0.000029,  49.835
   277.8,0.014498,0.009448,0.119278,0.000029,  49.828
   278.0,0.014400,0.009389,0.118589,0.000091,  49.832
   278.2,0.014307,0.009333,0.117972,0.000104,  49.830
   278.4,0.014215,0.009273,0.117412,0.000104,  49.835
   278.6,0.014135,0.009209,0.116910,0.000104,  49.837
   278.8,0.014045,0.009148,0.115979,0.000068,  49.831
   279.0,0.013946,0.009081,0.114915,0.000081,  49.838
   279.2,0.013848,0.009018,0.113714,0.000104,  49.834
   279.4,0.013755,0.008964,0.112921,0.000068,  49.835
   279.6,0.013666,0.008907,0.112263,0.000081,  49.839
   279.8,0.013573,0.008858,0.111740,0.000117,  49.837
   280.0,0.013474,0.008819,0.111099,0.000094,  49.839
   280.2,0.013384,0.008782,0.110457,0.000094,  49.838
   280.4,0.013288,0.008751,0.109812,0.000143,  49.841
   280.6,0.013195,0.008701,0.109061,0.000107,  49.845
   280.8,0.013111,0.008642,0.108223,0.000107,  49.849
   281.0,0.013022,0.008576,0.107306,0.000130,  49.847
   281.2,0.012937,0.008520,0.106658,0.000094,  49.846
   281.4,0.012853,0.008457,0.106075,0.000094,  49.852
   281.6,0.012778,0.008398,0.105563,0.000117,  49.850
   281.8,0.012699,0.008337,0.104975,0.000081,  49.853
   282.0,0.012611,0.008283,0.104400,0.000117,  49.851
   282.2,0.012536,0.008229,0.103804,0.000153,  49.858
   282.4,0.012466,0.008175,0.103175,0.000117,  49.861
   282.6,0.012391,0.008128,0.102534,0.000153,  49.868
   282.8,0.012335,0.008079,0.101864,0.000153,  49.877
   283.0,0.012276,0.008026,0.101225,0.000117,  49.865
   283.2,0.012211,0.007976,0.100593,0.000153,  49.863
   283.4,0.012143,0.007921,0.099956,0.000153,  49.861
   283.6,0.012075,0.007866,0.099319,0.000117,  49.861
   283.8,0.011999,0.007811,0.098683,0.000130,  49.862
   284.0,0.011914,0.007761,0.098054,0.000130,  49.863
   284.2,0.011836,0.007727,0.097352,0.000094,  49.865
   284.4,0.011761,0.007699,0.096628,0.000094,  49.863
   284.6,0.011681,0.007675,0.095869,0.000117,  49.862
   284.8,0.011609,0.007629,0.095250,0.000055,  49.863
   285.0,0.011533,0.007568,0.094688,0.000029,  49.860
   285.2,0.011448,0.007498,0.094164,0.000013,  49.864
   285.4,0.011376,0.007448,0.093537,-0.000023,  49.863
   285.6,0.011300,0.007401,0.092863,-0.000010,  49.865
   285.8,0.011219,0.007355,0.092150,0.000039,  49.867
   286.0,0.011144,0.007307,0.091537,0.000016,  49.863
   286.2,0.011068,0.007261,0.090939,0.000029,  49.863
   286.4,0.010993,0.007211,0.090386,0.000078,  49.863
   286.6,0.010917,0.007159,0.089866,0.000114,  49.868
   286.8,0.010844,0.007106,0.089347,0.000104,  49.871
   287.0,0.010773,0.007053,0.088892,0.000127,  49.866
   287.2,0.010698,0.007003,0.088424,0.000127,  49.869
   287.4,0.010625,0.006951,0.087625,0.000140,  49.870
   287.6,0.010555,0.006904,0.086678,0.000162,  49.869
   287.8,0.010479,0.006867,0.085617,0.000114,  49.868
   288.0,0.010406,0.006832,0.084955,0.000065,  49.871
   288.2,0.010336,0.006803,0.084417,0.000101,  49.870
   288.4,0.010263,0.006772,0.084022,0.000114,  49.870
   288.6,0.010195,0.006729,0.083621,0.000091,  49.867
   288.8,0.010128,0.006686,0.083253,0.000140,  49.873
   289.0,0.010063,0.006639,0.082981,0.000140,  49.873
   289.2,0.009986,0.006591,0.082535,0.000117,  49.873
   289.4,0.009916,0.006545,0.082012,0.000166,  49.870
   289.6,0.009837,0.006498,0.081451,0.000140,  49.872
   289.8,0.009767,0.006453,0.080955,0.000104,  49.872
   290.0,0.009699,0.006407,0.080447,0.000153,  49.868
   290.2,0.009641,0.006360,0.079952,0.000140,  49.870
   290.4,0.009582,0.006320,0.079412,0.000104,  49.866
   290.6,0.009525,0.006281,0.078847,0.000153,  49.867
   290.8,0.009476,0.006240,0.078257,0.000140,  49.870
   291.0,0.009428,0.006202,0.077790,0.000104,  49.872
   291.2,0.009366,0.006161,0.077330,0.000140,  49.881
   291.4,0.009293,0.006125,0.076916,0.000127,  49.887
   291.6,0.009215,0.006083,0.076463,0.000091,  49.896
   291.8,0.009153,0.006033,0.076010,0.000127,  49.887
   292.0,0.009093,0.005994,0.075545,0.000127,  49.884
   292.2,0.009045,0.005948,0.075068,0.000078,  49.867
   292.4,0.008989,0.005904,0.074572,0.000114,  49.864
   292.6,0.008928,0.005859,0.074064,0.000114,  49.863
   292.8,0.008876,0.005824,0.073586,0.000065,  49.860
   293.0,0.008819,0.005789,0.073126,0.000065,  49.854
   293.2,0.008765,0.005767,0.072653,0.000078,  49.855
   293.4,0.008713,0.005728,0.072192,0.000029,  49.853
   293.6,0.008659,0.005682,0.071726,-0.000010,  49.854
   293.8,0.008596,0.005629,0.071255,-0.000026,  49.855
   294.0,0.008539,0.005586,0.070765,-0.000062,  49.853
   294.2,0.008480,0.005560,0.070287,-0.000036,  49.853
   294.4,0.008418,0.005528,0.069791,0.000013,  49.844
   294.6,0.008360,0.005488,0.069351,0.000026,  49.851
   294.8,0.008302,0.005458,0.068929,0.000016,  49.849
   295.0,0.008245,0.005420,0.068558,0.000039,  49.847
   295.2,0.008189,0.005382,0.068186,0.000052,  49.847
   295.4,0.008126,0.005342,0.067586,0.000052,  49.851
   295.6,0.008072,0.005305,0.066912,0.000065,  49.843
   295.8,0.008010,0.005266,0.066148,0.000052,  49.843
   296.0,0.007953,0.005222,0.065650,0.000029,  49.847
   296.2,0.007892,0.005184,0.065251,0.000052,  49.844
   296.4,0.007843,0.005150,0.064939,0.000088,  49.848
   296.6,0.007792,0.005115,0.064522,0.000065,  49.846
   296.8,0.007728,0.005082,0.064088,0.000088,  49.848
   297.0,0.007674,0.005051,0.063647,0.000088,  49.848
   297.2,0.007620,0.005025,0.063226,0.000065,  49.851
   297.4,0.007557,0.004997,0.062810,0.000101,  49.852
   297.6,0.007510,0.004976,0.062395,0.000101,  49.850
   297.8,0.007456,0.004943,0.061937,0.000078,  49.851
   298.0,0.007399,0.004907,0.061469,0.000114,  49.853
   298.2,0.007352,0.004866,0.060982,0.000114,  49.858
   298.4,0.007301,0.004832,0.060556,0.000078,  49.855
   298.6,0.007243,0.004797,0.060150,0.000114,  49.856
   298.8,0.007196,0.004771,0.059731,0.000114,  49.853
   299.0,0.007145,0.004739,0.059332,0.000078,  49.858
   299.2,0.007085,0.004703,0.058932,0.000114,  49.858
   299.4,0.007041,0.004671,0.058533,0.000114,  49.860
   299.6,0.006990,0.004639,0.058128,0.000078,  49.866
   299.8,0.006947,0.004607,0.057718,0.000114,  49.875
   300.0,0.006899,0.004573,0.057308,0.000101,  49.879
   300.2,0.006862,0.004538,0.056940,0.000078,  49.871
   300.4,0.006823,0.004506,0.056603,0.000114,  49.861
   300.6,0.006775,0.004472,0.056260,0.000101,  49.861
   300.8,0.006724,0.004436,0.055863,0.000078,  49.862
   301.0,0.006684,0.004403,0.055437,0.000114,  49.862
   301.2,0.006635,0.004367,0.054969,0.000101,  49.861
   301.4,0.006594,0.004337,0.054819,0.000078,  49.865
   301.6,0.006561,0.004304,0.054813,0.000101,  49.864
   301.8,0.006522,0.004276,0.054933,0.000110,  49.860
   302.0,0.006486,0.004246,0.054603,0.000062,  49.861
   302.2,0.006440,0.004216,0.054089,0.000023,  49.859
   302.4,0.006402,0.004180,0.053419,-0.000042,  49.862
   302.6,0.006356,0.004152,0.052977,-0.000065,  49.862
   302.8,0.006306,0.004124,0.052535,-0.000016,  49.867
   303.0,0.006254,0.004103,0.052112,0.000010,  49.861
   303.2,0.006206,0.004079,0.051713,-0.000013,  49.863
   303.4,0.006163,0.004050,0.051315,0.000049,  49.858
   303.6,0.006121,0.004029,0.050922,0.000049,  49.859
   303.8,0.006078,0.004003,0.050596,0.000049,  49.855
   304.0,0.006038,0.003973,0.050311,0.000075,  49.857
   304.2,0.005998,0.003949,0.050067,0.000049,  49.855
   304.4,0.005961,0.003921,0.049872,0.000049,  49.854
   304.6,0.005918,0.003885,0.049475,0.000026,  49.857
   304.8,0.005876,0.003860,0.049031,0.000049,  49.858
   305.0,0.005834,0.003836,0.048529,0.000062,  49.857
   305.2,0.005794,0.003807,0.048087,0.000039,  49.855
   305.4,0.005745,0.003785,0.047674,0.000062,  49.859
   305.6,0.005705,0.003765,0.047256,0.000062,  49.862
   305.8,0.005667,0.003743,0.046956,0.000039,  49.860
   306.0,0.005614,0.003727,0.046726,0.000075,  49.855
   306.2,0.005574,0.003708,0.046549,0.000088,  49.860
   306.4,0.005537,0.003682,0.046231,0.000065,  49.858
   306.6,0.005497,0.003656,0.045891,0.000088,  49.855
   306.8,0.005460,0.003628,0.045498,0.000088,  49.856
   307.0,0.005423,0.003597,0.045175,0.000065,  49.855
   307.2,0.005385,0.003574,0.044882,0.000088,  49.855
   307.4,0.005348,0.003549,0.044583,0.000088,  49.854
   307.6,0.005311,0.003521,0.044279,0.000065,  49.858
   307.8,0.005273,0.003500,0.043992,0.000088,  49.857
   308.0,0.005242,0.003473,0.043694,0.000088,  49.861
   308.2,0.005209,0.003447,0.042897,0.000065,  49.863
   308.4,0.005165,0.003426,0.041853,0.000088,  49.870
   308.6,0.005131,0.003404,0.040572,0.000088,  49.875
   308.8,0.005091,0.003383,0.040282,0.000065,  49.861
   309.0,0.005054,0.003358,0.040371,0.000088,  49.845
   309.2,0.005019,0.003335,0.040841,0.000088,  49.845
   309.4,0.004978,0.003310,0.040804,0.000065,  49.846
   309.6,0.004949,0.003276,0.040694,0.000101,  49.841
   309.8,0.004916,0.003247,0.040497,0.000114,  49.839
   310.0,0.004898,0.003219,0.040490,0.000078,  49.833
   310.2,0.004871,0.003191,0.040531,0.000101,  49.836
   310.4,0.004836,0.003170,0.040623,0.000088,  49.831
   310.6,0.004815,0.003150,0.040437,0.000026,  49.829
   310.8,0.004789,0.003129,0.040129,0.000010,  49.827
   311.0,0.004750,0.003107,0.039711,-0.000032,  49.823
   311.2,0.004722,0.003093,0.039364,-0.000068,  49.829
   311.4,0.004693,0.003080,0.039006,-0.000042,  49.821
   311.6,0.004654,0.003061,0.038614,-0.000003,  49.814
   311.8,0.004626,0.003038,0.038297,-0.000026,  49.821
   312.0,0.004597,0.003021,0.038020,0.000023,  49.813
   312.2,0.004558,0.003005,0.037760,0.000036,  49.820
   312.4,0.004530,0.002985,0.037500,0.000013,  49.812
   312.6,0.004501,0.002963,0.037269,0.000062,  49.815
   312.8,0.004462,0.002941,0.037072,0.000049,  49.807
   313.0,0.004434,0.002923,0.036836,0.000062,  49.803
   313.2,0.004405,0.002907,0.036583,0.000062,  49.801
   313.4,0.004364,0.002889,0.036348,0.000075,  49.801
   313.6,0.004336,0.002871,0.036079,0.000075,  49.797
   313.8,0.004306,0.002854,0.035798,0.000039,  49.798
   314.0,0.004274,0.002836,0.035489,0.000088,  49.793
   314.2,0.004249,0.002816,0.035175,0.000088,  49.791
   314.4,0.004220,0.002794,0.034979,0.000065,  49.788
   314.6,0.004184,0.002772,0.034835,0.000088,  49.783
   314.8,0.004148,0.002756,0.034753,0.000088,  49.786
   315.0,0.004119,0.002729,0.034518,0.000065,  49.781
   315.2,0.004092,0.002710,0.034221,0.000088,  49.781
   315.4,0.004063,0.002695,0.033863,0.000075,  49.780
   315.6,0.004034,0.002679,0.033657,0.000052,  49.777
   315.8,0.004002,0.002661,0.033496,0.000088,  49.779
   316.0,0.003971,0.002648,0.033364,0.000075,  49.778
   316.2,0.003939,0.002630,0.033118,0.000052,  49.775
   316.4,0.003903,0.002608,0.032851,0.000101,  49.779
   316.6,0.003878,0.002586,0.032533,0.000101,  49.787
   316.8,0.003838,0.002569,0.032300,0.000078,  49.800
   317.0,0.003790,0.002557,0.032073,0.000101,  49.811
   317.2,0.003743,0.002545,0.031856,0.000088,  49.805
   317.4,0.003714,0.002529,0.031602,0.000065,  49.784
   317.6,0.003683,0.002516,0.031324,0.000088,  49.773
   317.8,0.003674,0.002497,0.030996,0.000088,  49.772
   318.0,0.003657,0.002471,0.030786,0.000065,  49.770
   318.2,0.003632,0.002444,0.030638,0.000088,  49.768
   318.4,0.003610,0.002413,0.030535,0.000088,  49.772
   318.6,0.003598,0.002393,0.030254,0.000065,  49.771
   318.8,0.003580,0.002370,0.029929,0.000075,  49.771
   319.0,0.003552,0.002346,0.029550,0.000062,  49.771
   319.2,0.003533,0.002335,0.029324,0.000000,  49.773
   319.4,0.003516,0.002321,0.029153,-0.000016,  49.777
   319.6,0.003497,0.002302,0.029026,-0.000081,  49.775
   319.8,0.003482,0.002286,0.028889,-0.000117,  49.772
   320.0,0.003451,0.002278,0.028767,-0.000055,  49.769
   320.2,0.003424,0.002266,0.028675,-0.000016,  49.768
   320.4,0.003395,0.002249,0.028477,-0.000026,  49.766
   320.6,0.003370,0.002231,0.028219,0.000023,  49.765
   320.8,0.003347,0.002219,0.027910,0.000036,  49.764
   321.0,0.003338,0.002205,0.027696,0.000013,  49.767
   321.2,0.003319,0.002188,0.027488,0.000062,  49.764
   321.4,0.003289,0.002177,0.027302,0.000049,  49.765
   321.6,0.003262,0.002162,0.027132,0.000049,  49.762
   321.8,0.003242,0.002148,0.026980,0.000062,  49.759
   322.0,0.003223,0.002139,0.026856,0.000049,  49.753
   322.2,0.003208,0.002123,0.026737,0.000084,  49.745
   322.4,0.003187,0.002109,0.026558,0.000062,  49.743
   322.6,0.003162,0.002096,0.026361,0.000062,  49.742
   322.8,0.003133,0.002077,0.026132,0.000075,  49.743
   323.0,0.003108,0.002061,0.025830,0.000052,  49.745
   323.2,0.003080,0.002048,0.025463,0.000088,  49.743
   323.4,0.003052,0.002032,0.025058,0.000075,  49.743
   323.6,0.003027,0.002019,0.024879,0.000052,  49.744
   323.8,0.003009,0.002015,0.024771,0.000075,  49.745
   324.0,0.002991,0.002002,0.024764,0.000062,  49.740
   324.2,0.002970,0.001987,0.024078,0.000039,  49.741
   324.4,0.002946,0.001978,0.023104,0.000075,  49.743
   324.6,0.002922,0.001964,0.021826,0.000088,  49.742
   324.8,0.002901,0.001947,0.021708,0.000065,  49.747
   325.0,0.002874,0.001932,0.022006,0.000088,  49.746
   325.2,0.002848,0.001913,0.022725,0.000075,  49.756
   325.4,0.002811,0.001895,0.022869,0.000052,  49.767
   325.6,0.002765,0.001885,0.022955,0.000088,  49.797
   325.8,0.002712,0.001870,0.022952,0.000075,  49.787
   326.0,0.002686,0.001852,0.022927,0.000052,  49.767
   326.2,0.002667,0.001839,0.022870,0.000075,  49.766
   326.4,0.002659,0.001824,0.022780,0.000062,  49.766
   326.6,0.002649,0.001808,0.022706,0.000039,  49.762
   326.8,0.002643,0.001786,0.022634,0.000039,  49.762
   327.0,0.002638,0.001757,0.022556,0.000039,  49.766
   327.2,0.002638,0.001737,0.022554,0.000003,  49.766
   327.4,0.002639,0.001717,0.022603,0.000039,  49.763
   327.6,0.002631,0.001702,0.022690,0.000049,  49.768
   327.8,0.002623,0.001689,0.022545,-0.000013,  49.766
   328.0,0.002615,0.001688,0.022302,-0.000016,  49.764
   328.2,0.002598,0.001693,0.021953,-0.000094,  49.774
   328.4,0.002591,0.001683,0.021791,-0.000130,  49.766
   328.6,0.002582,0.001681,0.021668,-0.000068,  49.773
   328.8,0.002565,0.001675,0.021583,-0.000029,  49.776
   329.0,0.002555,0.001669,0.021406,-0.000039,  49.778
   329.2,0.002544,0.001663,0.021213,0.000010,  49.773
   329.4,0.002527,0.001664,0.020999,0.000023,  49.779
   329.6,0.002512,0.001656,0.020827,0.000000,  49.776
   329.8,0.002504,0.001648,0.020656,0.000062,  49.780
   330.0,0.002488,0.001641,0.020485,0.000049,  49.777
   330.2,0.002472,0.001637,0.020085,0.000026,  49.782
   330.4,0.002452,0.001630,0.019572,0.000062,  49.781
   330.6,0.002432,0.001624,0.018946,0.000062,  49.787
   330.8,0.002416,0.001615,0.018759,0.000075,  49.784
   331.0,0.002394,0.001604,0.018741,0.000088,  49.787
   331.2,0.002372,0.001594,0.018869,0.000088,  49.785
   331.4,0.002360,0.001586,0.019182,0.000088,  49.792
   331.6,0.002344,0.001581,0.019224,0.000052,  49.789
   331.8,0.002324,0.001574,0.019243,0.000101,  49.790
   332.0,0.002308,0.001564,0.019251,0.000088,  49.794
   332.2,0.002292,0.001554,0.019216,0.000065,  49.794
   332.4,0.002270,0.001548,0.019165,0.000088,  49.794
   332.6,0.002258,0.001542,0.019093,0.000088,  49.794
   332.8,0.002242,0.001529,0.019014,0.000065,  49.790
   333.0,0.002222,0.001521,0.018909,0.000088,  49.797
   333.2,0.002212,0.001513,0.018783,0.000088,  49.797
   333.4,0.002197,0.001503,0.018417,0.000065,  49.800
   333.6,0.002174,0.001492,0.017907,0.000088,  49.803
   333.8,0.002162,0.001484,0.017268,0.000088,  49.813
   334.0,0.002128,0.001470,0.017114,0.000065,  49.821
   334.2,0.002083,0.001462,0.017150,0.000088,  49.826
   334.4,0.002033,0.001452,0.017363,0.000088,  49.818
   334.6,0.002010,0.001445,0.017355,0.000065,  49.805
   334.8,0.001990,0.001438,0.017326,0.000101,  49.808
   335.0,0.001990,0.001430,0.017281,0.000101,  49.801
   335.2,0.001982,0.001412,0.017010,0.000078,  49.801
   335.4,0.001973,0.001383,0.016600,0.000101,  49.803
   335.6,0.001974,0.001353,0.016067,0.000088,  49.806
   335.8,0.001977,0.001328,0.016028,0.000065,  49.805
   336.0,0.001971,0.001309,0.016189,0.000075,  49.802
   336.2,0.001969,0.001298,0.016517,0.000062,  49.806
   336.4,0.001961,0.001292,0.016423,0.000000,  49.805
   336.6,0.001953,0.001288,0.016211,-0.000016,  49.810
   336.8,0.001939,0.001287,0.015874,-0.000045,  49.803
   337.0,0.001933,0.001285,0.015817,-0.000081,  49.807
   337.2,0.001922,0.001283,0.015826,-0.000055,  49.807
   337.4,0.001912,0.001279,0.015905,-0.000003,  49.805
   337.6,0.001901,0.001275,0.015917,-0.000026,  49.806
   337.8,0.001888,0.001269,0.015931,0.000023,  49.806
   338.0,0.001877,0.001263,0.015939,0.000036,  49.806
   338.2,0.001864,0.001255,0.015855,0.000026,  49.804
   338.4,0.001853,0.001244,0.015741,0.000062,  49.804
   338.6,0.001843,0.001231,0.015578,0.000062,  49.807
   338.8,0.001833,0.001223,0.015457,0.000039,  49.806
   339.0,0.001823,0.001219,0.015321,0.000062,  49.802
   339.2,0.001803,0.001217,0.015180,0.000062,  49.801
   339.4,0.001790,0.001208,0.015103,0.000075,  49.807
   339.6,0.001776,0.001204,0.015041,0.000088,  49.800
   339.8,0.001763,0.001198,0.015024,0.000088,  49.801
   340.0,0.001751,0.001190,0.015006,0.000088,  49.800
   340.2,0.001738,0.001179,0.014887,0.000052,  49.803
   340.4,0.001721,0.001169,0.014730,0.000088,  49.801
   340.6,0.001708,0.001159,0.014531,0.000075,  49.801
   340.8,0.001700,0.001148,0.014154,0.000052,  49.805
   341.0,0.001686,0.001146,0.013677,0.000075,  49.801
   341.2,0.001676,0.001138,0.013089,0.000097,  49.798
   341.4,0.001665,0.001128,0.013043,0.000075,  49.797
   341.6,0.001652,0.001128,0.013221,0.000062,  49.799
   341.8,0.001636,0.001123,0.013614,0.000062,  49.798
   342.0,0.001623,0.001115,0.013664,0.000039,  49.797
   342.2,0.001604,0.001104,0.013661,0.000062,  49.798
   342.4,0.001583,0.001098,0.013612,0.000062,  49.809
   342.6,0.001551,0.001091,0.013572,0.000039,  49.817
   342.8,0.001509,0.001081,0.013495,0.000062,  49.823
   343.0,0.001460,0.001077,0.013407,0.000062,  49.804
   343.2,0.001444,0.001066,0.013357,0.000039,  49.796
   343.4,0.001438,0.001052,0.013318,0.000062,  49.794
   343.6,0.001445,0.001040,0.013284,0.000062,  49.793
   343.8,0.001445,0.001014,0.012979,0.000039,  49.791
   344.0,0.001448,0.000995,0.012531,0.000075,  49.790
   344.2,0.001455,0.000974,0.011946,0.000075,  49.785
   344.4,0.001457,0.000955,0.011876,0.000039,  49.790
   344.6,0.001451,0.000940,0.011986,0.000062,  49.784
   344.8,0.001445,0.000934,0.012288,0.000058,  49.790
   345.0,0.001434,0.000928,0.012301,0.000010,  49.785
   345.2,0.001431,0.000932,0.012273,-0.000016,  49.791
   345.4,0.001426,0.000937,0.012174,-0.000019,  49.787
   345.6,0.001427,0.000930,0.012134,-0.000055,  49.787
   345.8,0.001419,0.000928,0.012078,-0.000042,  49.788
   346.0,0.001408,0.000928,0.012029,0.000033,  49.791
   346.2,0.001402,0.000924,0.012000,0.000010,  49.787
   346.4,0.001391,0.000923,0.011960,0.000023,  49.784
   346.6,0.001374,0.000921,0.011938,0.000023,  49.788
   346.8,0.001363,0.000917,0.011532,0.000000,  49.785
   347.0,0.001355,0.000913,0.010946,0.000062,  49.788
   347.2,0.001348,0.000910,0.010161,0.000049,  49.791
   347.4,0.001337,0.000904,0.010043,0.000013,  49.788
   347.6,0.001332,0.000896,0.010169,0.000062,  49.794
   347.8,0.001317,0.000892,0.010523,0.000049,  49.790
   348.0,0.001312,0.000886,0.010606,0.000049,  49.789
   348.2,0.001304,0.000883,0.010679,0.000062,  49.794
   348.4,0.001287,0.000880,0.010736,0.000049,  49.797
   348.6,0.001283,0.000870,0.010761,0.000049,  49.792
   348.8,0.001275,0.000869,0.010786,0.000026,  49.798
   349.0,0.001264,0.000861,0.010784,0.000049,  49.798
   349.2,0.001260,0.000857,0.010766,0.000049,  49.794
   349.4,0.001250,0.000847,0.010779,0.000026,  49.793
   349.6,0.001239,0.000847,0.010793,0.000062,  49.794
   349.8,0.001235,0.000845,0.010812,0.000062,  49.798
   350.0,0.001227,0.000832,0.010588,0.000026,  49.795
   350.2,0.001214,0.000827,0.010216,0.000062,  49.796
   350.4,0.001212,0.000825,0.009724,0.000049,  49.794
   350.6,0.001204,0.000818,0.009643,0.000013,  49.802
   350.8,0.001187,0.000818,0.009679,0.000062,  49.805
   351.0,0.001170,0.000820,0.009852,0.000049,  49.814
   351.2,0.001139,0.000812,0.009909,0.000013,  49.818
   351.4,0.001096,0.000812,0.009965,0.000062,  49.825
   351.6,0.001050,0.000807,0.010016,0.000049,  49.811
   351.8,0.001034,0.000801,0.009961,0.000013,  49.805
   352.0,0.001025,0.000791,0.009881,0.000062,  49.797
   352.2,0.001039,0.000783,0.009728,0.000049,  49.799
   352.4,0.001063,0.000761,0.009706,0.000013,  49.797
   352.6,0.001071,0.000737,0.009722,0.000062,  49.803
   352.8,0.001076,0.000709,0.009776,0.000049,  49.798
   353.0,0.001079,0.000692,0.009765,0.000013,  49.798
   353.2,0.001084,0.000688,0.009720,0.000036,  49.799
   353.4,0.001080,0.000691,0.009656,0.000010,  49.798
   353.6,0.001080,0.000691,0.009611,-0.000039,  49.796
   353.8,0.001080,0.000693,0.009556,-0.000016,  49.799
   354.0,0.001071,0.000706,0.009501,-0.000029,  49.801
   354.2,0.001066,0.000706,0.008865,-0.000065,  49.800
   354.4,0.001061,0.000703,0.007953,-0.000029,  49.799
   354.6,0.001052,0.000702,0.006744,0.000020,  49.802
   354.8,0.001047,0.000698,0.006680,0.000010,  49.802
   355.0,0.001042,0.000705,0.007036,0.000023,  49.799
   355.2,0.001030,0.000706,0.007823,0.000023,  49.801
   355.4,0.001029,0.000699,0.008010,0.000000,  49.801
   355.6,0.001024,0.000697,0.008109,0.000049,  49.802
   355.8,0.001018,0.000692,0.008119,0.000023,  49.800
   356.0,0.001020,0.000688,0.008054,-0.000013,  49.806
   356.2,0.001012,0.000686,0.007884,0.000036,  49.806
   356.4,0.001004,0.000685,0.007631,0.000036,  49.806
   356.6,0.000996,0.000679,0.007599,0.000036,  49.805
   356.8,0.000991,0.000681,0.007618,0.000049,  49.808
   357.0,0.000983,0.000682,0.007712,0.000049,  49.806
   357.2,0.000981,0.000676,0.007853,0.000049,  49.813
   357.4,0.000976,0.000675,0.007936,0.000026,  49.810
   357.6,0.000961,0.000674,0.008018,0.000049,  49.813
   357.8,0.000951,0.000666,0.008122,0.000049,  49.812
   358.0,0.000943,0.000654,0.008225,0.000013,  49.811
   358.2,0.000938,0.000646,0.008349,0.000062,  49.816
   358.4,0.000939,0.000639,0.008479,0.000049,  49.815
   358.6,0.000934,0.000636,0.008478,0.000013,  49.816
   358.8,0.000928,0.000636,0.008409,0.000049,  49.818
   359.0,0.000932,0.000636,0.008294,0.000071,  49.821
   359.2,0.000924,0.000630,0.008240,0.000036,  49.824
   359.4,0.000904,0.000624,0.008186,0.000036,  49.826
   359.6,0.000891,0.000619,0.008137,0.000071,  49.835
   359.8,0.000860,0.000612,0.008099,0.000036,  49.840
   360.0,0.000811,0.000611,0.008054,0.000049,  49.838
   360.2,0.000758,0.000614,0.008027,0.000084,  49.831
   360.4,0.000747,0.000605,0.007947,0.000049,  49.829
   360.6,0.000749,0.000599,0.007840,0.000062,  49.831
   360.8,0.000775,0.000593,0.007726,0.000084,  49.835
   361.0,0.000780,0.000568,0.007700,0.000062,  49.831
   361.2,0.000788,0.000545,0.007704,0.000062,  49.838
   361.4,0.000794,0.000514,0.007747,0.000097,  49.840
   361.6,0.000803,0.000502,0.007704,0.000049,  49.842
   361.8,0.000808,0.000500,0.007640,0.000023,  49.844
   362.0,0.000808,0.000510,0.007533,0.000033,  49.845
   362.2,0.000808,0.000509,0.007196,-0.000016,  49.849
   362.4,0.000808,0.000516,0.006717,-0.000029,  49.845
   362.6,0.000805,0.000522,0.006103,0.000007,  49.850
   362.8,0.000800,0.000520,0.005993,-0.000016,  49.853
   363.0,0.000801,0.000526,0.006071,-0.000016,  49.852
   363.2,0.000801,0.000528,0.006317,0.000033,  49.854
   363.4,0.000810,0.000528,0.006379,0.000010,  49.850
   363.6,0.000810,0.000522,0.006435,0.000023,  49.856
   363.8,0.000806,0.000526,0.006484,0.000058,  49.856
   364.0,0.000798,0.000528,0.006525,0.000036,  49.860
   364.2,0.000795,0.000528,0.006545,0.000049,  49.864
   364.4,0.000786,0.000531,0.006544,0.000036,  49.858
   364.6,0.000783,0.000533,0.006558,0.000000,  49.866
   364.8,0.000779,0.000526,0.006567,0.000036,  49.866
   365.0,0.000767,0.000524,0.006572,0.000036,  49.864
   365.2,0.000771,0.000524,0.006575,0.000036,  49.866
   365.4,0.000771,0.000521,0.006596,0.000036,  49.868
   365.6,0.000768,0.000525,0.006627,0.000049,  49.873
   365.8,0.000770,0.000522,0.006647,0.000071,  49.877
   366.0,0.000767,0.000529,0.006619,0.000049,  49.876
   366.2,0.000761,0.000534,0.006593,0.000049,  49.873
   366.4,0.000764,0.000529,0.006545,0.000062,  49.874
   366.6,0.000762,0.000527,0.006351,0.000039,  49.880
   366.8,0.000759,0.000525,0.006069,0.000075,  49.878
   367.0,0.000763,0.000518,0.005709,0.000075,  49.880
   367.2,0.000763,0.000516,0.005661,0.000052,  49.882
   367.4,0.000754,0.000519,0.005729,0.000088,  49.874
   367.6,0.000746,0.000515,0.005916,0.000075,  49.883
   367.8,0.000738,0.000516,0.005978,0.000052,  49.882
   368.0,0.000721,0.000519,0.006024,0.000075,  49.887
   368.2,0.000712,0.000522,0.006071,0.000062,  49.887
   368.4,0.000688,0.000515,0.006069,0.000039,  49.892
   368.6,0.000644,0.000518,0.006059,0.000075,  49.907
   368.8,0.000605,0.000521,0.006017,0.000088,  49.906
   369.0,0.000599,0.000519,0.006031,0.000065,  49.908
   369.2,0.000605,0.000508,0.006067,0.000088,  49.907
   369.4,0.000621,0.000497,0.006107,0.000110,  49.906
   369.6,0.000626,0.000475,0.006133,0.000088,  49.908
   369.8,0.000631,0.000445,0.006155,0.000088,  49.900
   370.0,0.000631,0.000406,0.006171,0.000075,  49.908
   370.2,0.000634,0.000394,0.006145,0.000039,  49.904
   370.4,0.000630,0.000396,0.006066,0.000049,  49.905
   370.6,0.000636,0.000402,0.005955,0.000010,  49.903
   370.8,0.000630,0.000404,0.005901,-0.000026,  49.908
   371.0,0.000630,0.000410,0.005842,0.000010,  49.904
   371.2,0.000627,0.000422,0.005805,0.000010,  49.912
   371.4,0.000625,0.000423,0.005767,-0.000026,  49.907
   371.6,0.000625,0.000422,0.005718,0.000023,  49.907
   371.8,0.000616,0.000424,0.005691,0.000036,  49.901
   372.0,0.000617,0.000423,0.005631,0.000013,  49.894
   372.2,0.000614,0.000421,0.005579,0.000049,  49.895
   372.4,0.000602,0.000417,0.005499,0.000062,  49.897
   372.6,0.000603,0.000414,0.005430,0.000039,  49.891
   372.8,0.000603,0.000417,0.005352,0.000062,  49.894
   373.0,0.000592,0.000422,0.005263,0.000062,  49.892
   373.2,0.000598,0.000420,0.005262,0.000039,  49.891
   373.4,0.000598,0.000416,0.005287,0.000062,  49.891
   373.6,0.000593,0.000418,0.005347,0.000062,  49.890
   373.8,0.000594,0.000416,0.005352,0.000062,  49.889
   374.0,0.000591,0.000409,0.005356,0.000075,  49.890
   374.2,0.000582,0.000414,0.005324,0.000062,  49.891
   374.4,0.000580,0.000414,0.005298,0.000049,  49.892
   374.6,0.000577,0.000409,0.005271,0.000026,  49.886
   374.8,0.000568,0.000412,0.005248,0.000062,  49.874
   375.0,0.000572,0.000409,0.005237,0.000075,  49.872
   375.2,0.000569,0.000404,0.005179,0.000052,  49.875
   375.4,0.000567,0.000396,0.005106,0.000088,  49.877
   375.6,0.000565,0.000394,0.005001,0.000075,  49.874
   375.8,0.000565,0.000394,0.004948,0.000052,  49.874
   376.0,0.000556,0.000396,0.004916,0.000075,  49.876
   376.2,0.000556,0.000400,0.004905,0.000062,  49.870
   376.4,0.000544,0.000400,0.004737,0.000039,  49.876
   376.6,0.000534,0.000396,0.004512,0.000062,  49.881
   376.8,0.000518,0.000391,0.004230,0.000062,  49.885
   377.0,0.000498,0.000389,0.004192,0.000039,  49.889
   377.2,0.000486,0.000384,0.004270,0.000062,  49.903
   377.4,0.000462,0.000386,0.004442,0.000062,  49.897
   377.6,0.000451,0.000382,0.004499,0.000026,  49.896
   377.8,0.000460,0.000379,0.004519,0.000062,  49.892
   378.0,0.000468,0.000368,0.004517,0.000049,  49.896
   378.2,0.000470,0.000344,0.004559,0.000026,  49.894
   378.4,0.000473,0.000312,0.004612,0.000062,  49.902
   378.6,0.000478,0.000270,0.004665,0.000062,  49.901
   378.8,0.000478,0.000262,0.004655,0.000013,  49.906
   379.0,0.000483,0.000267,0.004597,0.000023,  49.897
   379.2,0.000486,0.000288,0.004517,-0.000016,  49.905
   379.4,0.000489,0.000288,0.004490,-0.000052,  49.904
   379.6,0.000485,0.000296,0.004484,-0.000016,  49.905
   379.8,0.000491,0.000309,0.004472,0.000020,  49.902
   380.0,0.000486,0.000314,0.004455,0.000010,  49.904
   380.2,0.000487,0.000317,0.004429,0.000010,  49.901
   380.4,0.000495,0.000326,0.004403,0.000046,  49.907
   380.6,0.000500,0.000332,0.004361,0.000023,  49.904
   380.8,0.000500,0.000336,0.004324,0.000036,  49.907
   381.0,0.000496,0.000340,0.004261,0.000036,  49.907
   381.2,0.000495,0.000343,0.004234,0.000013,  49.899
   381.4,0.000491,0.000346,0.004234,0.000049,  49.903
   381.6,0.000481,0.000348,0.004238,0.000062,  49.901
   381.8,0.000487,0.000350,0.004243,0.000026,  49.900
   382.0,0.000483,0.000354,0.004248,0.000062,  49.902
   382.2,0.000481,0.000352,0.004257,0.000049,  49.905
   382.4,0.000476,0.000349,0.004231,0.000049,  49.906
   382.6,0.000469,0.000349,0.004205,0.000062,  49.904
   382.8,0.000476,0.000342,0.004127,0.000062,  49.899
   383.0,0.000470,0.000336,0.004060,0.000062,  49.899
   383.2,0.000464,0.000339,0.003846,0.000039,  49.903
   383.4,0.000470,0.000339,0.003554,0.000062,  49.902
   383.6,0.000465,0.000333,0.003196,0.000062,  49.896
   383.8,0.000462,0.000333,0.003164,0.000039,  49.899
   384.0,0.000457,0.000335,0.003268,0.000062,  49.899
   384.2,0.000456,0.000334,0.003490,0.000062,  49.899
   384.4,0.000448,0.000333,0.003527,0.000039,  49.901
   384.6,0.000444,0.000335,0.003538,0.000062,  49.900
   384.8,0.000446,0.000338,0.003513,0.000062,  49.900
   385.0,0.000435,0.000331,0.003580,0.000026,  49.906
   385.2,0.000416,0.000325,0.003672,0.000062,  49.906
   385.4,0.000396,0.000323,0.003789,0.000049,  49.906
   385.6,0.000385,0.000317,0.003824,0.000013,  49.914
   385.8,0.000372,0.000319,0.003823,0.000062,  49.904
   386.0,0.000362,0.000318,0.003807,0.000049,  49.900
   386.2,0.000359,0.000308,0.003811,0.000026,  49.899
   386.4,0.000359,0.000304,0.003809,0.000062,  49.899
   386.6,0.000359,0.000293,0.003814,0.000062,  49.901
   386.8,0.000362,0.000269,0.003414,0.000026,  49.900
   387.0,0.000364,0.000246,0.002818,0.000062,  49.901
   387.2,0.000370,0.000216,0.002001,0.000049,  49.902
   387.4,0.000372,0.000210,0.001990,0.000000,  49.900
   387.6,0.000378,0.000212,0.002247,0.000010,  49.899
   387.8,0.000378,0.000222,0.002810,-0.000042,  49.897
   388.0,0.000376,0.000223,0.002970,-0.000078,  49.896
   388.2,0.000379,0.000236,0.003063,-0.000042,  49.894
   388.4,0.000375,0.000241,0.003089,-0.000042,  49.897
   388.6,0.000376,0.000244,0.003181,-0.000065,  49.898
   388.8,0.000376,0.000246,0.003283,-0.000016,  49.893
   389.0,0.000382,0.000244,0.003369,-0.000003,  49.893
   389.2,0.000388,0.000252,0.003435,-0.000026,  49.893
   389.4,0.000392,0.000260,0.003481,0.000010,  49.893
   389.6,0.000400,0.000266,0.003522,0.000010,  49.894
   389.8,0.000402,0.000270,0.003386,-0.000013,  49.888
   390.0,0.000398,0.000272,0.003164,0.000036,  49.888
   390.2,0.000397,0.000274,0.002859,0.000023,  49.886
   390.4,0.000392,0.000274,0.002811,-0.000013,  49.888
   390.6,0.000388,0.000277,0.002842,0.000036,  49.886
   390.8,0.000375,0.000282,0.002977,0.000036,  49.884
   391.0,0.000376,0.000280,0.003003,0.000000,  49.882
   391.2,0.000370,0.000281,0.003003,0.000049,  49.888
   391.4,0.000373,0.000284,0.003005,0.000049,  49.880
   391.6,0.000373,0.000283,0.003025,0.000049,  49.879
   391.8,0.000363,0.000278,0.003070,0.000062,  49.880
   392.0,0.000367,0.000277,0.003106,0.000049,  49.885
   392.2,0.000365,0.000271,0.003167,0.000049,  49.881
   392.4,0.000355,0.000271,0.003161,0.000026,  49.876
   392.6,0.000359,0.000269,0.003135,0.000049,  49.882
   392.8,0.000359,0.000267,0.003089,0.000062,  49.877
   393.0,0.000359,0.000262,0.003068,0.000026,  49.874
   393.2,0.000358,0.000267,0.003051,0.000062,  49.876
   393.4,0.000356,0.000267,0.003030,0.000084,  49.876
   393.6,0.000337,0.000260,0.002993,0.000049,  49.879
   393.8,0.000318,0.000265,0.002952,0.000062,  49.880
   394.0,0.000288,0.000259,0.002896,0.000049,  49.885
   394.2,0.000271,0.000259,0.002916,0.000013,  49.889
   394.4,0.000267,0.000259,0.002961,0.000062,  49.878
   394.6,0.000262,0.000259,0.003027,0.000049,  49.871
   394.8,0.000262,0.000253,0.003062,0.000013,  49.853
   395.0,0.000264,0.000246,0.003067,0.000062,  49.856
   395.2,0.000276,0.000234,0.003067,0.000049,  49.854
   395.4,0.000279,0.000221,0.003078,0.000013,  49.855
   395.6,0.000275,0.000198,0.003079,0.000049,  49.852
   395.8,0.000284,0.000173,0.003082,0.000071,  49.850
   396.0,0.000287,0.000169,0.003102,0.000023,  49.854
   396.2,0.000283,0.000173,0.003116,-0.000003,  49.851
   396.4,0.000295,0.000175,0.003139,-0.000042,  49.852
   396.6,0.000295,0.000179,0.003096,-0.000078,  49.851
   396.8,0.000295,0.000181,0.003008,-0.000029,  49.855
   397.0,0.000297,0.000186,0.002893,-0.000016,  49.852
   397.2,0.000295,0.000183,0.002577,-0.000026,  49.850
   397.4,0.000297,0.000185,0.002114,0.000010,  49.851
   397.6,0.000291,0.000192,0.001539,0.000010,  49.850
   397.8,0.000297,0.000188,0.001451,-0.000013,  49.852
   398.0,0.000302,0.000190,0.001534,0.000036,  49.852
   398.2,0.000296,0.000193,0.001804,0.000023,  49.858
   398.4,0.000302,0.000192,0.001958,-0.000013,  49.858
   398.6,0.000305,0.000196,0.002143,0.000036,  49.857
   398.8,0.000299,0.000201,0.002370,0.000036,  49.856
   399.0,0.000302,0.000203,0.002472,0.000000,  49.861
   399.2,0.000302,0.000203,0.002539,0.000036,  49.860
   399.4,0.000296,0.000203,0.002555,0.000036,  49.861
   399.6,0.000302,0.000208,0.002564,0.000000,  49.862
   399.8,0.000305,0.000208,0.002555,0.000036,  49.860
   400.0,0.000301,0.000211,0.002503,0.000036,  49.860
   400.2,0.000313,0.000213,0.002503,0.000036,  49.865
   400.4,0.000313,0.000212,0.002529,0.000036,  49.863
   400.6,0.000307,0.000209,0.002544,0.000049,  49.865
   400.8,0.000310,0.000209,0.002570,0.000036,  49.866
   401.0,0.000304,0.000208,0.002549,0.000000,  49.881
   401.2,0.000304,0.000221,0.002507,0.000036,  49.880
   401.4,0.000299,0.000226,0.002445,0.000036,  49.883
   401.6,0.000289,0.000224,0.002232,0.000000,  49.883
   401.8,0.000296,0.000225,0.001937,0.000036,  49.885
   402.0,0.000293,0.000223,0.001571,0.000058,  49.888
   402.2,0.000276,0.000220,0.001318,0.000023,  49.893
   402.4,0.000267,0.000217,0.001096,0.000049,  49.897
   402.6,0.000248,0.000215,0.000874,0.000049,  49.896
   402.8,0.000231,0.000214,0.000399,0.000013,  49.895
   403.0,0.000227,0.000213,-0.000189,0.000062,  49.891
   403.2,0.000217,0.000216,-0.000903,0.000049,  49.887
   403.4,0.000210,0.000208,-0.000903,0.000013,  49.888
   403.6,0.000219,0.000200,-0.000632,0.000062,  49.893
   403.8,0.000227,0.000196,-0.000054,0.000049,  49.893
   404.0,0.000235,0.000186,0.000358,0.000013,  49.886
   404.2,0.000246,0.000169,0.000839,0.000062,  49.893
   404.4,0.000258,0.000158,0.001362,0.000049,  49.891
   404.6,0.000260,0.000158,0.001671,0.000000,  49.890
   404.8,0.000256,0.000158,0.001893,0.000010,  49.892
   405.0,0.000258,0.000165,0.002015,-0.000029,  49.888
   405.2,0.000258,0.000162,0.002106,-0.000065,  49.889
   405.4,0.000251,0.000171,0.002164,-0.000042,  49.892
   405.6,0.000260,0.000170,0.002143,-0.000029,  49.886
   405.8,0.000258,0.000172,0.002193,-0.000039,  49.886
   406.0,0.000258,0.000174,0.002260,-0.000003,  49.885
   406.2,0.000255,0.000183,0.002321,0.000010,  49.885
   406.4,0.000256,0.000186,0.002382,-0.000013,  49.883
   406.6,0.000256,0.000182,0.002455,0.000036,  49.880
   406.8,0.000256,0.000186,0.002501,0.000036,  49.880
   407.0,0.000256,0.000180,0.002505,0.000000,  49.882
   407.2,0.000256,0.000180,0.002464,0.000036,  49.877
   407.4,0.000254,0.000178,0.002397,0.000036,  49.878
   407.6,0.000246,0.000178,0.002406,0.000000,  49.882
   407.8,0.000246,0.000174,0.002410,0.000036,  49.877
   408.0,0.000246,0.000178,0.002445,0.000036,  49.873
   408.2,0.000240,0.000176,0.002423,0.000000,  49.876
   408.4,0.000238,0.000180,0.002376,0.000036,  49.871
   408.6,0.000238,0.000178,0.002326,0.000036,  49.872
   408.8,0.000235,0.000174,0.002320,0.000000,  49.865
   409.0,0.000232,0.000172,0.002329,0.000036,  49.869
   409.2,0.000232,0.000172,0.002370,0.000036,  49.868
   409.4,0.000235,0.000169,0.002334,0.000036,  49.869
   409.6,0.000235,0.000169,0.002256,0.000036,  49.866
   409.8,0.000235,0.000176,0.002165,0.000049,  49.869
   410.0,0.000232,0.000169,0.002139,0.000036,  49.868
   410.2,0.000229,0.000172,0.002144,0.000000,  49.861
   410.4,0.000229,0.000171,0.002157,0.000036,  49.848
   410.6,0.000219,0.000168,0.002214,0.000036,  49.847
   410.8,0.000202,0.000170,0.002171,0.000000,  49.850
   411.0,0.000190,0.000167,0.002098,0.000036,  49.852
   411.2,0.000161,0.000165,0.002016,0.000071,  49.858
   411.4,0.000148,0.000160,0.001995,0.000036,  49.851
   411.6,0.000138,0.000162,0.002005,0.000036,  49.844
   411.8,0.000134,0.000158,0.002016,0.000036,  49.837
   412.0,0.000134,0.000147,0.002042,0.000000,  49.831
   412.2,0.000132,0.000151,0.002083,0.000036,  49.833
   412.4,0.000152,0.000141,0.002118,0.000036,  49.827
   412.6,0.000160,0.000134,0.001995,0.000000,  49.832
   412.8,0.000159,0.000124,0.001779,0.000036,  49.823
   413.0,0.000168,0.000111,0.001481,0.000036,  49.827
   413.2,0.000167,0.000108,0.001449,-0.000026,  49.825
   413.4,0.000172,0.000107,0.001500,-0.000016,  49.822
   413.6,0.000175,0.000107,0.001648,-0.000032,  49.825
   413.8,0.000168,0.000105,0.001699,-0.000081,  49.823
   414.0,0.000175,0.000106,0.001734,-0.000068,  49.819
   414.2,0.000175,0.000111,0.001775,-0.000032,  49.819
   414.4,0.000175,0.000111,0.001764,-0.000055,  49.815
   414.6,0.000177,0.000119,0.001713,-0.000042,  49.810
   414.8,0.000177,0.000121,0.001630,0.000007,  49.813
   415.0,0.000180,0.000116,0.001641,-0.000003,  49.810
   415.2,0.000182,0.000118,0.001640,-0.000003,  49.806
   415.4,0.000185,0.000115,0.001681,0.000046,  49.804
   415.6,0.000188,0.000117,0.001679,0.000010,  49.803
   415.8,0.000188,0.000121,0.001658,0.000046,  49.800
   416.0,0.000185,0.000126,0.001632,0.000055,  49.795
   416.2,0.000186,0.000132,0.001600,0.000020,  49.796
   416.4,0.000188,0.000139,0.001575,0.000020,  49.795
   416.6,0.000193,0.000139,0.001544,0.000033,  49.791
   416.8,0.000199,0.000138,0.001553,0.000010,  49.790
   417.0,0.000192,0.000142,0.001588,0.000023,  49.786
   417.2,0.000194,0.000140,0.001666,0.000058,  49.786
   417.4,0.000191,0.000140,0.001702,0.000036,  49.782
   417.6,0.000188,0.000140,0.001718,0.000049,  49.787
   417.8,0.000181,0.000138,0.001718,0.000058,  49.783
   418.0,0.000191,0.000134,0.001702,0.000023,  49.782
   418.2,0.000197,0.000131,0.001661,0.000036,  49.783
   418.4,0.000184,0.000137,0.001588,0.000058,  49.783
   418.6,0.000184,0.000137,0.001584,0.000058,  49.780
   418.8,0.000181,0.000131,0.001572,0.000046,  49.784
   419.0,0.000172,0.000137,0.001582,0.000046,  49.778
   419.2,0.000168,0.000139,0.001602,0.000068,  49.784
   419.4,0.000152,0.000132,0.001633,0.000033,  49.781
   419.6,0.000134,0.000137,0.001668,0.000068,  49.792
   419.8,0.000114,0.000134,0.001703,0.000068,  49.803
   420.0,0.000097,0.000126,0.001739,0.000068,  49.785
   420.2,0.000089,0.000119,0.001748,0.000068,  49.774
   420.4,0.000077,0.000111,0.001764,0.000091,  49.767
   420.6,0.000082,0.000105,0.001727,0.000068,  49.766
   420.8,0.000085,0.000090,0.001660,0.000068,  49.764
   421.0,0.000099,0.000078,0.001569,0.000068,  49.761
   421.2,0.000103,0.000078,0.001581,0.000033,  49.759
   421.4,0.000111,0.000072,0.001598,0.000033,  49.761
   421.6,0.000119,0.000071,0.001651,0.000020,  49.760
   421.8,0.000124,0.000070,0.001646,-0.000016,  49.760
   422.0,0.000124,0.000069,0.001593,-0.000055,  49.758
   422.2,0.000128,0.000072,0.001513,-0.000071,  49.751
   422.4,0.000134,0.000069,0.001511,-0.000107,  49.755
   422.6,0.000127,0.000071,0.001525,-0.000094,  49.749
   422.8,0.000136,0.000076,0.001554,-0.000045,  49.751
   423.0,0.000139,0.000075,0.001512,-0.000068,  49.753
   423.2,0.000138,0.000086,0.001439,-0.000068,  49.750
   423.4,0.000147,0.000090,0.001352,-0.000019,  49.748
   423.6,0.000149,0.000091,0.001331,-0.000042,  49.743
   423.8,0.000152,0.000093,0.001319,-0.000029,  49.739
   424.0,0.000155,0.000092,0.001351,0.000020,  49.742
   424.2,0.000157,0.000096,0.001356,-0.000003,  49.742
   424.4,0.000151,0.000103,0.001356,-0.000003,  49.737
   424.6,0.000151,0.000109,0.001345,0.000020,  49.744
   424.8,0.000151,0.000107,0.001345,0.000010,  49.739
   425.0,0.000144,0.000113,0.001334,0.000010,  49.740
   425.2,0.000151,0.000113,0.001309,0.000046,  49.736
   425.4,0.000151,0.000113,0.001169,0.000023,  49.717
   425.6,0.000147,0.000115,0.000984,0.000036,  49.717
   425.8,0.000159,0.000115,0.000711,0.000058,  49.715
   426.0,0.000161,0.000112,0.000670,0.000023,  49.719
   426.2,0.000160,0.000110,0.000723,0.000036,  49.715
   426.4,0.000167,0.000115,0.000843,0.000058,  49.718
   426.6,0.000164,0.000110,0.000888,0.000023,  49.713
   426.8,0.000158,0.000117,0.000929,0.000023,  49.712
   427.0,0.000164,0.000125,0.000981,0.000046,  49.713
   427.2,0.000161,0.000122,0.001026,0.000010,  49.709
   427.4,0.000158,0.000124,0.001057,0.000023,  49.709
   427.6,0.000164,0.000126,0.001099,0.000071,  49.712
   427.8,0.000164,0.000121,0.001140,0.000071,  49.710
   428.0,0.000151,0.000124,0.001170,0.000084,  49.718
   428.2,0.000127,0.000123,0.001217,0.000049,  49.732
   428.4,0.000102,0.000120,0.001249,0.000071,  49.739
   428.6,0.000091,0.000124,0.001269,0.000036,  49.739
   428.8,0.000077,0.000121,0.001301,0.000058,  49.725
   429.0,0.000078,0.000110,0.001316,0.000081,  49.703
   429.2,0.000083,0.000099,0.001346,0.000046,  49.702
   429.4,0.000085,0.000087,0.001392,0.000058,  49.702
   429.6,0.000102,0.000074,0.001444,0.000036,  49.695
   429.8,0.000112,0.000070,0.001501,0.000000,  49.695
   430.0,0.000118,0.000063,0.001550,0.000023,  49.696
   430.2,0.000129,0.000060,0.001609,0.000010,  49.697
   430.4,0.000135,0.000065,0.001592,-0.000052,  49.695
   430.6,0.000131,0.000066,0.001551,-0.000055,  49.692
   430.8,0.000131,0.000075,0.001472,-0.000107,  49.693
   431.0,0.000136,0.000077,0.001434,-0.000156,  49.692
   431.2,0.000132,0.000080,0.001409,-0.000094,  49.693
   431.4,0.000141,0.000080,0.001387,-0.000068,  49.692
   431.6,0.000144,0.000077,0.001134,-0.000091,  49.690
   431.8,0.000143,0.000080,0.000763,-0.000029,  49.695
   432.0,0.000152,0.000089,0.000263,-0.000016,  49.687
   432.2,0.000152,0.000095,0.000247,-0.000026,  49.687
   432.4,0.000152,0.000095,0.000412,0.000010,  49.686
   432.6,0.000152,0.000107,0.000757,0.000010,  49.686
   432.8,0.000156,0.000109,0.000834,-0.000013,  49.690
   433.0,0.000156,0.000111,0.000860,0.000023,  49.686
   433.2,0.000156,0.000106,0.000846,0.000010,  49.685
   433.4,0.000151,0.000106,0.000902,-0.000026,  49.680
   433.6,0.000156,0.000106,0.000984,0.000023,  49.685
   433.8,0.000155,0.000109,0.001081,0.000023,  49.680
   434.0,0.000160,0.000101,0.001111,-0.000013,  49.683
   434.2,0.000160,0.000105,0.001122,0.000036,  49.682
   434.4,0.000160,0.000109,0.001117,0.000023,  49.679
   434.6,0.000164,0.000111,0.001137,-0.000013,  49.678
   434.8,0.000155,0.000111,0.001157,0.000023,  49.680
   435.0,0.000152,0.000116,0.001204,0.000010,  49.677
   435.2,0.000146,0.000121,0.001219,-0.000026,  49.678
   435.4,0.000149,0.000121,0.001213,0.000023,  49.675
   435.6,0.000149,0.000120,0.001215,0.000036,  49.675
   435.8,0.000149,0.000115,0.001230,0.000036,  49.677
   436.0,0.000149,0.000111,0.001245,0.000049,  49.672
   436.2,0.000145,0.000104,0.001275,0.000049,  49.672
   436.4,0.000137,0.000102,0.001301,0.000036,  49.675
   436.6,0.000111,0.000100,0.001234,0.000000,  49.693
   436.8,0.000085,0.000101,0.001127,0.000036,  49.699
   437.0,0.000051,0.000092,0.000995,0.000023,  49.706
   437.2,0.000043,0.000096,0.000999,-0.000013,  49.681
   437.4,0.000037,0.000101,0.001071,0.000023,  49.672
   437.6,0.000044,0.000100,0.001187,0.000046,  49.664
   437.8,0.000053,0.000088,0.000789,-0.000003,  49.665
   438.0,0.000062,0.000082,0.000150,-0.000003,  49.662
   438.2,0.000084,0.000069,-0.000707,0.000033,  49.663
   438.4,0.000086,0.000054,-0.000645,-0.000016,  49.663
   438.6,0.000087,0.000045,-0.000238,-0.000016,  49.664
   438.8,0.000094,0.000036,0.000515,-0.000016,  49.664
   439.0,0.000095,0.000032,0.000695,-0.000065,  49.663
   439.2,0.000085,0.000038,0.000766,-0.000081,  49.662
   439.4,0.000094,0.000051,0.000724,-0.000146,  49.663
   439.6,0.000099,0.000050,0.000821,-0.000169,  49.658
   439.8,0.000093,0.000053,0.000912,-0.000120,  49.663
   440.0,0.000099,0.000055,0.001013,-0.000081,  49.660
   440.2,0.000102,0.000056,0.001013,-0.000091,  49.661
   440.4,0.000101,0.000061,0.000951,-0.000042,  49.663
   440.6,0.000103,0.000065,0.000856,-0.000029,  49.652
   440.8,0.000106,0.000069,0.000907,-0.000052,  49.660
   441.0,0.000111,0.000076,0.000983,-0.000016,  49.658
   441.2,0.000111,0.000078,0.001110,-0.000016,  49.665
   441.4,0.000114,0.000073,0.001100,-0.000039,  49.662
   441.6,0.000110,0.000078,0.001050,-0.000003,  49.660
   441.8,0.000119,0.000072,0.000931,0.000020,  49.663
   442.0,0.000119,0.000071,0.000941,-0.000003,  49.659
   442.2,0.000115,0.000075,0.000982,-0.000003,  49.654
   442.4,0.000122,0.000081,0.001063,0.000033,  49.659
   442.6,0.000119,0.000082,0.001068,0.000010,  49.659
   442.8,0.000115,0.000086,0.001042,0.000010,  49.665
   443.0,0.000122,0.000086,0.001003,0.000046,  49.664
   443.2,0.000119,0.000089,0.000977,0.000010,  49.661
   443.4,0.000115,0.000090,0.000941,0.000010,  49.659
   443.6,0.000113,0.000092,0.000895,0.000033,  49.664
   443.8,0.000104,0.000085,0.000910,-0.000016,  49.661
   444.0,0.000097,0.000084,0.000941,0.000020,  49.663
   444.2,0.000101,0.000086,0.000982,0.000055,  49.663
   444.4,0.000105,0.000084,0.000982,0.000055,  49.659
   444.6,0.000098,0.000083,0.000960,0.000081,  49.659
   444.8,0.000105,0.000087,0.000941,0.000033,  49.668
   445.0,0.000111,0.000084,0.000889,0.000046,  49.674
   445.2,0.000086,0.000086,0.000729,0.000010,  49.684
   445.4,0.000064,0.000086,0.000503,0.000010,  49.696
   445.6,0.000027,0.000086,0.000220,0.000046,  49.704
   445.8,0.000015,0.000087,0.000085,0.000010,  49.679
   446.0,0.000018,0.000091,-0.000007,0.000010,  49.663
   446.2,0.000027,0.000085,-0.000058,0.000046,  49.664
   446.4,0.000028,0.000075,0.000039,-0.000003,  49.661
   446.6,0.000043,0.000068,0.000250,-0.000003,  49.666
   446.8,0.000055,0.000053,0.000539,0.000033,  49.664
   447.0,0.000053,0.000041,0.000715,-0.000016,  49.666
   447.2,0.000068,0.000031,0.000865,-0.000029,  49.668
   447.4,0.000080,0.000023,0.001016,0.000007,  49.671
   447.6,0.000076,0.000025,0.001057,-0.000042,  49.675
   447.8,0.000085,0.000029,0.001021,-0.000094,  49.674
   448.0,0.000087,0.000039,0.000927,-0.000110,  49.679
   448.2,0.000090,0.000042,0.000936,-0.000133,  49.679
   448.4,0.000093,0.000045,0.000945,-0.000120,  49.676
   448.6,0.000102,0.000053,0.000976,-0.000045,  49.679
   448.8,0.000102,0.000059,0.000991,-0.000055,  49.676
   449.0,0.000105,0.000064,0.000985,-0.000042,  49.675
   449.2,0.000107,0.000076,0.000980,-0.000006,  49.674
   449.4,0.000116,0.000076,0.000995,-0.000029,  49.674
   449.6,0.000116,0.000080,0.001000,-0.000016,  49.679
   449.8,0.000110,0.000074,0.001011,0.000020,  49.679
   450.0,0.000110,0.000067,0.000985,-0.000003,  49.678
   450.2,0.000103,0.000072,0.000950,-0.000003,  49.682
   450.4,0.000094,0.000076,0.000874,0.000033,  49.681
   450.6,0.000089,0.000078,0.000868,-0.000003,  49.679
   450.8,0.000085,0.000077,0.000903,-0.000003,  49.687
   451.0,0.000085,0.000078,0.000948,0.000033,  49.692
   451.2,0.000089,0.000080,0.000973,-0.000003,  49.689
   451.4,0.000085,0.000076,0.000993,-0.000003,  49.697
   451.6,0.000085,0.000070,0.001018,0.000033,  49.700
   451.8,0.000089,0.000068,0.001008,0.000033,  49.697
   452.0,0.000082,0.000067,0.000982,0.000033,  49.701
   452.2,0.000086,0.000066,0.000920,-0.000003,  49.701
   452.4,0.000085,0.000064,0.000842,0.000033,  49.704
   452.6,0.000076,0.000062,0.000852,-0.000003,  49.704
   452.8,0.000076,0.000069,0.000893,0.000010,  49.711
   453.0,0.000070,0.000071,0.000943,0.000058,  49.712
   453.2,0.000064,0.000064,0.000943,0.000036,  49.713
   453.4,0.000061,0.000069,0.000902,0.000049,  49.714
   453.6,0.000068,0.000074,0.000846,0.000058,  49.720
   453.8,0.000043,0.000068,0.000831,0.000023,  49.733
   454.0,0.000009,0.000066,0.000811,0.000023,  49.746
   454.2,-0.000030,0.000066,0.000796,0.000046,  49.744
   454.4,-0.000042,0.000068,0.000770,0.000033,  49.726
   454.6,-0.000027,0.000065,0.000729,0.000033,  49.729
   454.8,-0.000005,0.000064,0.000677,0.000091,  49.723
   455.0,0.000002,0.000050,0.000693,0.000055,  49.724
   455.2,0.000018,0.000034,0.000739,0.000020,  49.723
   455.4,0.000024,0.000012,0.000785,0.000033,  49.728
   455.6,0.000028,0.000002,0.000656,-0.000003,  49.725
   455.8,0.000046,-0.000008,0.000441,-0.000016,  49.725
   456.0,0.000051,-0.000007,0.000145,-0.000029,  49.725
   456.2,0.000059,-0.000005,0.000119,-0.000078,  49.729
   456.4,0.000055,0.000002,0.000179,-0.000094,  49.730
   456.6,0.000064,0.000021,0.000338,-0.000146,  49.729
   456.8,0.000064,0.000031,0.000441,-0.000169,  49.734
   457.0,0.000069,0.000041,0.000543,-0.000120,  49.731
   457.2,0.000078,0.000049,0.000665,-0.000045,  49.732
   457.4,0.000078,0.000053,0.000732,-0.000055,  49.731
   457.6,0.000075,0.000057,0.000768,-0.000042,  49.730
   457.8,0.000080,0.000060,0.000762,-0.000006,  49.729
   458.0,0.000084,0.000066,0.000756,-0.000029,  49.729
   458.2,0.000080,0.000068,0.000737,-0.000016,  49.731
   458.4,0.000082,0.000068,0.000702,0.000020,  49.733
   458.6,0.000089,0.000073,0.000738,-0.000003,  49.736
   458.8,0.000088,0.000076,0.000784,0.000020,  49.735
   459.0,0.000093,0.000068,0.000850,0.000042,  49.730
   459.2,0.000105,0.000065,0.000840,0.000020,  49.727
   459.4,0.000101,0.000071,0.000794,0.000020,  49.734
   459.6,0.000101,0.000072,0.000712,0.000033,  49.734
   459.8,0.000102,0.000072,0.000738,-0.000003,  49.734
   460.0,0.000093,0.000071,0.000784,-0.000003,  49.734
   460.2,0.000093,0.000068,0.000876,0.000033,  49.736
   460.4,0.000090,0.000068,0.000856,-0.000003,  49.736
   460.6,0.000081,0.000071,0.000785,-0.000003,  49.731
   460.8,0.000088,0.000083,0.000667,0.000033,  49.739
   461.0,0.000090,0.000082,0.000646,0.000033,  49.736
   461.2,0.000084,0.000084,0.000661,0.000046,  49.736
   461.4,0.000088,0.000082,0.000691,-0.000003,  49.733
   461.6,0.000092,0.000080,0.000747,0.000046,  49.738
   461.8,0.000085,0.000082,0.000700,0.000010,  49.740
   462.0,0.000082,0.000086,0.000650,0.000010,  49.742
   462.2,0.000084,0.000086,0.000564,0.000046,  49.747
   462.4,0.000056,0.000084,0.000347,-0.000003,  49.752
   462.6,0.000022,0.000078,0.000049,-0.000003,  49.763
   462.8,-0.000019,0.000078,-0.000331,0.000033,  49.753
   463.0,-0.000031,0.000073,-0.000327,-0.000016,  49.742
   463.2,-0.000018,0.000070,-0.000156,-0.000016,  49.736
   463.4,0.000012,0.000062,0.000142,0.000033,  49.738
   463.6,0.000019,0.000051,0.000285,-0.000003,  49.745
   463.8,0.000035,0.000035,0.000425,-0.000003,  49.747
   464.0,0.000055,0.000021,0.000570,0.000033,  49.753
   464.2,0.000056,0.000018,0.000683,-0.000003,  49.754
   464.4,0.000064,0.000012,0.000755,-0.000016,  49.754
   464.6,0.000070,0.000010,0.000827,0.000007,  49.758
   464.8,0.000069,0.000011,0.000858,-0.000029,  49.757
   465.0,0.000069,0.000023,0.000873,-0.000068,  49.756
   465.2,0.000076,0.000042,0.000841,-0.000071,  49.767
   465.4,0.000076,0.000042,0.000871,-0.000094,  49.768
   465.6,0.000081,0.000048,0.000912,-0.000081,  49.768
   465.8,0.000077,0.000052,0.000964,-0.000019,  49.774
   466.0,0.000086,0.000053,0.000943,-0.000042,  49.787
   466.2,0.000089,0.000057,0.000918,-0.000042,  49.785
   466.4,0.000092,0.000066,0.000847,0.000007,  49.793
   466.6,0.000092,0.000067,0.000641,-0.000016,  49.795
   466.8,0.000088,0.000068,0.000369,-0.000016,  49.793
   467.0,0.000088,0.000065,-0.000008,0.000020,  49.794
   467.2,0.000090,0.000067,-0.000018,-0.000003,  49.800
   467.4,0.000084,0.000072,0.000127,0.000020,  49.797
   467.6,0.000090,0.000074,0.000384,0.000042,  49.803
   467.8,0.000088,0.000072,0.000470,0.000020,  49.804
   468.0,0.000081,0.000071,0.000543,0.000055,  49.805
   468.2,0.000085,0.000070,0.000584,0.000068,  49.805
   468.4,0.000084,0.000072,0.000624,0.000046,  49.803
   468.6,0.000077,0.000071,0.000650,0.000046,  49.805
   468.8,0.000077,0.000074,0.000661,0.000046,  49.804
   469.0,0.000078,0.000074,0.000644,0.000023,  49.806
   469.2,0.000069,0.000075,0.000635,0.000023,  49.805
   469.4,0.000069,0.000074,0.000605,0.000046,  49.806
   469.6,0.000070,0.000075,0.000620,0.000046,  49.811
   469.8,0.000064,0.000069,0.000640,0.000046,  49.802
   470.0,0.000061,0.000071,0.000702,0.000033,  49.798
   470.2,0.000065,0.000071,0.000762,0.000055,  49.799
   470.4,0.000056,0.000066,0.000735,0.000033,  49.795
   470.6,0.000051,0.000065,0.000694,0.000068,  49.800
   470.8,0.000047,0.000064,0.000638,0.000068,  49.806
   471.0,0.000017,0.000063,0.000484,0.000033,  49.810
   471.2,-0.000023,0.000061,0.000257,0.000068,  49.809
   471.4,-0.000067,0.000061,-0.000009,0.000055,  49.805
   471.6,-0.000076,0.000057,-0.000024,0.000033,  49.790
   471.8,-0.000060,0.000053,0.000047,0.000020,  49.790
   472.0,-0.000028,0.000043,0.000211,0.000007,  49.788
   472.2,-0.000022,0.000024,0.000329,-0.000016,  49.791
   472.4,-0.000005,0.000011,0.000473,-0.000016,  49.788
   472.6,0.000009,-0.000015,0.000638,0.000020,  49.784
   472.8,0.000015,-0.000017,0.000715,-0.000003,  49.779
   473.0,0.000027,-0.000019,0.000767,-0.000029,  49.783
   473.2,0.000039,-0.000015,0.000782,-0.000019,  49.779
   473.4,0.000040,-0.000007,0.000797,-0.000055,  49.776
   473.6,0.000046,0.000001,0.000787,-0.000068,  49.781
   473.8,0.000055,0.000010,0.000728,-0.000058,  49.777
   474.0,0.000057,0.000016,0.000722,-0.000094,  49.780
   474.2,0.000057,0.000022,0.000726,-0.000068,  49.778
   474.4,0.000051,0.000024,0.000716,-0.000032,  49.776
   474.6,0.000052,0.000028,0.000684,-0.000055,  49.777
   474.8,0.000051,0.000030,0.000654,-0.000042,  49.769
   475.0,0.000051,0.000033,0.000614,-0.000006,  49.775
   475.2,0.000056,0.000034,0.000563,-0.000029,  49.774
   475.4,0.000052,0.000035,0.000507,-0.000016,  49.779
   475.6,0.000055,0.000035,0.000434,0.000020,  49.775
   475.8,0.000057,0.000036,0.000439,-0.000003,  49.778
   476.0,0.000056,0.000041,0.000464,0.000020,  49.777
   476.2,0.000056,0.000043,0.000505,0.000029,  49.778
   476.4,0.000063,0.000045,0.000520,0.000007,  49.782
   476.6,0.000056,0.000048,0.000525,0.000007,  49.780
   476.8,0.000060,0.000049,0.000531,0.000007,  49.785
   477.0,0.000061,0.000048,0.000536,-0.000016,  49.785
   477.2,0.000055,0.000050,0.000551,-0.000029,  49.783
   477.4,0.000059,0.000050,0.000555,0.000007,  49.787
   477.6,0.000061,0.000054,0.000555,0.000007,  49.786
   477.8,0.000057,0.000054,0.000540,0.000007,  49.787
   478.0,0.000061,0.000057,0.000499,0.000007,  49.785
   478.2,0.000068,0.000057,0.000489,0.000042,  49.787
   478.4,0.000067,0.000055,0.000489,0.000020,  49.788
   478.6,0.000067,0.000051,0.000489,0.000055,  49.788
   478.8,0.000076,0.000051,0.000499,0.000055,  49.791
   479.0,0.000067,0.000055,0.000489,0.000033,  49.793
   479.2,0.000061,0.000059,0.000484,0.000068,  49.790
   479.4,0.000051,0.000052,0.000463,0.000055,  49.800
   479.6,0.000015,0.000054,0.000474,0.000046,  49.806
   479.8,-0.000011,0.000054,0.000499,0.000081,  49.809
   480.0,-0.000055,0.000052,0.000520,0.000081,  49.793
   480.2,-0.000064,0.000052,0.000501,0.000046,  49.787
   480.4,-0.000048,0.000050,0.000445,0.000046,  49.789
   480.6,-0.000014,0.000053,0.000363,0.000033,  49.787
   480.8,-0.000010,0.000037,0.000435,-0.000016,  49.785
   481.0,0.000007,0.000010,0.000543,0.000020,  49.782
   481.2,0.000019,-0.000020,0.000702,0.000055,  49.783
   481.4,0.000023,-0.000028,0.000732,0.000020,  49.782
   481.6,0.000040,-0.000032,0.000732,0.000007,  49.780
   481.8,0.000048,-0.000014,0.000681,-0.000032,  49.773
   482.0,0.000056,-0.000011,0.000690,-0.000068,  49.778
   482.2,0.000058,-0.000001,0.000695,-0.000055,  49.776
   482.4,0.000061,0.000009,0.000726,-0.000032,  49.778
   482.6,0.000061,0.000016,0.000675,-0.000055,  49.779
   482.8,0.000064,0.000024,0.000576,-0.000042,  49.780
   483.0,0.000066,0.000033,0.000449,-0.000006,  49.774
   483.2,0.000066,0.000042,0.000413,-0.000029,  49.772
   483.4,0.000060,0.000045,0.000393,-0.000029,  49.773
   483.6,0.000069,0.000047,0.000393,-0.000006,  49.771
   483.8,0.000066,0.000043,0.000413,-0.000029,  49.775
   484.0,0.000063,0.000043,0.000458,-0.000016,  49.771
   484.2,0.000065,0.000049,0.000525,0.000020,  49.768
   484.4,0.000061,0.000048,0.000530,-0.000003,  49.767
   484.6,0.000057,0.000049,0.000508,-0.000003,  49.768
   484.8,0.000061,0.000053,0.000489,0.000020,  49.768
   485.0,0.000059,0.000052,0.000458,-0.000003,  49.765
   485.2,0.000055,0.000054,0.000413,-0.000003,  49.767
   485.4,0.000061,0.000056,0.000342,0.000020,  49.765
   485.6,0.000068,0.000055,0.000110,-0.000003,  49.764
   485.8,0.000064,0.000055,-0.000225,-0.000003,  49.767
   486.0,0.000061,0.000062,-0.000663,0.000033,  49.760
   486.2,0.000065,0.000064,-0.000637,0.000010,  49.748
   486.4,0.000061,0.000068,-0.000442,0.000010,  49.747
   486.6,0.000061,0.000068,-0.000072,0.000046,  49.750
   486.8,0.000065,0.000070,0.000045,0.000046,  49.742
   487.0,0.000061,0.000060,0.000148,0.000046,  49.748
   487.2,0.000061,0.000056,0.000194,0.000010,  49.749
   487.4,0.000065,0.000054,0.000219,0.000033,  49.751
   487.6,0.000056,0.000048,0.000256,-0.000003,  49.747
   487.8,0.000048,0.000051,0.000266,-0.000003,  49.746
   488.0,0.000044,0.000049,0.000241,0.000033,  49.754
   488.2,0.000019,0.000045,0.000297,0.000010,  49.758
   488.4,-0.000010,0.000048,0.000378,0.000010,  49.764
   488.6,-0.000040,0.000046,0.000486,0.000046,  49.767
   488.8,-0.000047,0.000044,0.000456,0.000010,  49.761
   489.0,-0.000031,0.000042,0.000343,0.000010,  49.749
   489.2,-0.000001,0.000030,0.000186,0.000033,  49.744
   489.4,0.000003,0.000010,-0.000020,-0.000016,  49.749
   489.6,0.000011,-0.000009,-0.000292,-0.000016,  49.751
   489.8,0.000026,-0.000037,-0.000609,0.000020,  49.748
   490.0,0.000027,-0.000037,-0.000574,-0.000016,  49.747
   490.2,0.000036,-0.000025,-0.000385,-0.000006,  49.751
   490.4,0.000045,-0.000007,-0.000036,-0.000023,  49.750
   490.6,0.000044,-0.000005,0.000107,-0.000058,  49.751
   490.8,0.000044,0.000007,0.000209,-0.000010,  49.754
   491.0,0.000038,0.000010,0.000301,-0.000010,  49.753
   491.2,0.000036,0.000014,0.000337,-0.000032,  49.753
   491.4,0.000043,0.000017,0.000328,0.000003,  49.753
   491.6,0.000052,0.000024,0.000278,0.000016,  49.755
   491.8,0.000055,0.000026,0.000268,-0.000006,  49.754
   492.0,0.000057,0.000030,0.000257,-0.000006,  49.758
   492.2,0.000053,0.000032,0.000247,0.000007,  49.755
   492.4,0.000060,0.000036,0.000287,-0.000016,  49.759
   492.6,0.000063,0.000035,0.000333,-0.000016,  49.759
   492.8,0.000068,0.000035,0.000393,0.000020,  49.751
   493.0,0.000077,0.000037,0.000275,-0.000003,  49.754
   493.2,0.000073,0.000039,0.000049,-0.000003,  49.751
   493.4,0.000070,0.000037,-0.000254,0.000020,  49.750
   493.6,0.000068,0.000041,-0.000279,0.000010,  49.750
   493.8,0.000064,0.000042,-0.000207,0.000010,  49.752
   494.0,0.000061,0.000048,-0.000047,0.000046,  49.751
   494.2,0.000068,0.000052,0.000020,0.000023,  49.751
   494.4,0.000064,0.000056,0.000080,0.000023,  49.750
   494.6,0.000064,0.000062,0.000136,0.000046,  49.744
   494.8,0.000070,0.000064,0.000218,0.000010,  49.743
   495.0,0.000067,0.000060,0.000321,0.000010,  49.745
   495.2,0.000067,0.000060,0.000424,0.000046,  49.738
   495.4,0.000064,0.000062,0.000424,0.000046,  49.742
   495.6,0.000060,0.000060,0.000378,0.000058,  49.738
   495.8,0.000064,0.000067,0.000286,0.000010,  49.740
   496.0,0.000061,0.000070,0.000271,0.000046,  49.741
   496.2,0.000052,0.000066,0.000281,0.000010,  49.741
   496.4,0.000048,0.000065,0.000303,0.000010,  49.744
   496.6,0.000038,0.000065,0.000339,0.000033,  49.748
   496.8,0.000021,0.000064,0.000359,-0.000016,  49.755
   497.0,0.000011,0.000058,0.000389,-0.000016,  49.751
   497.2,-0.000007,0.000056,0.000430,0.000033,  49.739
   497.4,-0.000014,0.000055,0.000404,-0.000003,  49.741
   497.6,-0.000005,0.000051,0.000342,-0.000003,  49.737
   497.8,0.000007,0.000039,0.000262,0.000033,  49.735
   498.0,0.000006,0.000025,0.000324,-0.000003,  49.729
   498.2,0.000014,0.000003,0.000437,-0.000003,  49.735
   498.4,0.000023,-0.000024,0.000598,0.000033,  49.726
   498.6,0.000024,-0.000026,0.000664,-0.000003,  49.730
   498.8,0.000030,-0.000019,0.000695,-0.000029,  49.726
   499.0,0.000044,-0.000009,0.000689,-0.000019,  49.723
   499.2,0.000043,-0.000001,0.000667,-0.000055,  49.729
   499.4,0.000047,0.000004,0.000637,-0.000055,  49.732
   499.6,0.000051,0.000015,0.000549,-0.000032,  49.727
   499.8,0.000047,0.000021,0.000513,-0.000055,  49.726
   500.0,0.000044,0.000030,0.000498,-0.000042,  49.730
   500.2,0.000044,0.000036,0.000472,0.000007,  49.729
   500.4,0.000044,0.000044,0.000421,-0.000016,  49.726
   500.6,0.000047,0.000045,0.000343,-0.000029,  49.723
   500.8,0.000043,0.000045,0.000263,0.000007,  49.731
   501.0,0.000049,0.000044,0.000237,-0.000003,  49.726
   501.2,0.000049,0.000046,0.000221,-0.000003,  49.723
   501.4,0.000053,0.000039,0.000231,0.000046,  49.727
   501.6,0.000057,0.000037,0.000236,0.000010,  49.732
   501.8,0.000053,0.000036,0.000256,0.000046,  49.726
   502.0,0.000048,0.000033,0.000271,0.000068,  49.727
   502.2,0.000045,0.000028,0.000286,0.000055,  49.720
   502.4,0.000039,0.000032,0.000291,0.000042,  49.718
   502.6,0.000036,0.000031,0.000285,0.000078,  49.720
   502.8,0.000034,0.000032,0.000248,0.000055,  49.716
   503.0,0.000027,0.000036,0.000192,0.000055,  49.711
   503.2,0.000030,0.000034,0.000100,0.000055,  49.717
   503.4,0.000030,0.000034,0.000124,0.000033,  49.715
   503.6,0.000023,0.000034,0.000179,0.000068,  49.716
   503.8,0.000030,0.000031,0.000291,0.000068,  49.713
   504.0,0.000031,0.000033,0.000291,0.000068,  49.711
   504.2,0.000022,0.000035,0.000239,0.000033,  49.712
   504.4,0.000028,0.000040,0.000147,0.000068,  49.709
   504.6,0.000032,0.000032,0.000106,0.000068,  49.708
   504.8,0.000018,0.000032,0.000065,0.000020,  49.703
   505.0,0.000010,0.000035,0.000040,0.000042,  49.710
   505.2,-0.000007,0.000033,-0.000001,0.000042,  49.717
   505.4,-0.000019,0.000029,0.000023,0.000020,  49.722
   505.6,-0.000026,0.000034,0.000085,0.000042,  49.713
   505.8,-0.000039,0.000037,0.000177,0.000042,  49.702
   506.0,-0.000043,0.000029,0.000147,0.000020,  49.694
   506.2,-0.000031,0.000021,0.000065,0.000055,  49.687
   506.4,-0.000017,0.000010,-0.000072,0.000055,  49.687
   506.6,-0.000010,-0.000009,-0.000040,0.000033,  49.690
   506.8,0.000000,-0.000023,0.000038,0.000055,  49.684
   507.0,0.000016,-0.000049,0.000183,0.000042,  49.679
   507.2,0.000017,-0.000048,0.000250,0.000007,  49.681
   507.4,0.000021,-0.000043,0.000268,-0.000019,  49.677
   507.6,0.000030,-0.000032,0.000292,-0.000058,  49.681
   507.8,0.000032,-0.000024,0.000271,-0.000094,  49.680
   508.0,0.000022,-0.000016,0.000215,-0.000081,  49.679
   508.2,0.000028,-0.000011,0.000129,-0.000045,  49.675
   508.4,0.000031,-0.000001,0.000138,-0.000068,  49.679
   508.6,0.000024,0.000005,0.000183,-0.000068,  49.677
   508.8,0.000031,0.000018,0.000249,-0.000019,  49.674
   509.0,0.000031,0.000016,-0.000256,-0.000042,  49.671
   509.2,0.000029,0.000022,-0.001021,-0.000029,  49.677
   509.4,0.000036,0.000023,-0.002065,0.000020,  49.677
   509.6,0.000039,0.000020,-0.002101,-0.000003,  49.668
   509.8,0.000041,0.000018,-0.001763,-0.000003,  49.672
   510.0,0.000037,0.000022,-0.001066,0.000020,  49.670
   510.2,0.000034,0.000022,-0.000857,-0.000003,  49.675
   510.4,0.000030,0.000018,-0.000688,-0.000016,  49.674
   510.6,0.000027,0.000020,-0.000590,0.000007,  49.672
   510.8,0.000028,0.000017,-0.000447,-0.000016,  49.673
   511.0,0.000022,0.000020,-0.000324,-0.000029,  49.674
   511.2,0.000024,0.000024,-0.000206,0.000007,  49.676
   511.4,0.000024,0.000019,-0.000129,-0.000016,  49.672
   511.6,0.000015,0.000017,-0.000099,-0.000016,  49.673
   511.8,0.000022,0.000020,-0.000088,0.000033,  49.675
   512.0,0.000026,0.000022,-0.000048,-0.000003,  49.667
   512.2,0.000019,0.000022,-0.000002,-0.000003,  49.675
   512.4,0.000019,0.000023,0.000049,0.000033,  49.670
   512.6,0.000028,0.000024,0.000079,-0.000003,  49.671
   512.8,0.000024,0.000030,0.000120,-0.000003,  49.670
   513.0,0.000034,0.000028,0.000157,0.000020,  49.672
   513.2,0.000037,0.000029,0.000178,-0.000003,  49.668
   513.4,0.000023,0.000032,0.000173,-0.000003,  49.673
   513.6,0.000016,0.000034,0.000143,0.000020,  49.678
   513.8,-0.000002,0.000036,0.000128,0.000020,  49.688
   514.0,-0.000019,0.000030,0.000113,0.000033,  49.699
   514.2,-0.000023,0.000028,0.000087,-0.000003,  49.688
   514.4,-0.000034,0.000024,0.000061,0.000033,  49.678
   514.6,-0.000038,0.000020,0.000076,-0.000003,  49.668
   514.8,-0.000030,0.000016,0.000123,-0.000003,  49.666
   515.0,-0.000026,-0.000005,0.000169,0.000033,  49.666
   515.2,-0.000024,-0.000028,0.000149,-0.000003,  49.663
   515.4,-0.000010,-0.000054,0.000105,-0.000003,  49.664
   515.6,-0.000002,-0.000058,0.000020,0.000033,  49.662
   515.8,-0.000003,-0.000061,-0.000031,-0.000016,  49.662
   516.0,0.000006,-0.000051,-0.000078,-0.000029,  49.664
   516.2,0.000015,-0.000034,-0.000125,-0.000032,  49.661
   516.4,0.000014,-0.000024,-0.000116,-0.000068,  49.661
   516.6,0.000019,-0.000019,-0.000064,-0.000055,  49.657
   516.8,0.000031,-0.000006,-0.000021,-0.000032,  49.657
   517.0,0.000030,0.000002,-0.000176,-0.000055,  49.653
   517.2,0.000039,0.000003,-0.000422,-0.000042,  49.652
   517.4,0.000045,0.000011,-0.000771,-0.000006,  49.651
   517.6,0.000041,0.000015,-0.000736,-0.000029,  49.646
   517.8,0.000045,0.000020,-0.000557,-0.000029,  49.646
   518.0,0.000045,0.000024,-0.000249,0.000007,  49.642
   518.2,0.000048,0.000026,-0.000665,-0.000016,  49.641
   518.4,0.000051,0.000027,-0.001363,-0.000029,  49.641
   518.6,0.000049,0.000025,-0.002338,0.000007,  49.637
   518.8,0.000052,0.000027,-0.002276,-0.000016,  49.626
   519.0,0.000046,0.000032,-0.001848,-0.000029,  49.622
   519.2,0.000043,0.000031,-0.001030,0.000007,  49.623
   519.4,0.000043,0.000030,-0.000789,-0.000016,  49.623
   519.6,0.000034,0.000034,-0.000644,-0.000016,  49.620
   519.8,0.000038,0.000035,-0.000618,0.000020,  49.619
   520.0,0.000041,0.000039,-0.000496,-0.000003,  49.616
   520.2,0.000038,0.000038,-0.000368,-0.000003,  49.615
   520.4,0.000038,0.000037,-0.000250,0.000020,  49.617
   520.6,0.000041,0.000033,-0.000754,0.000010,  49.617
   520.8,0.000038,0.000036,-0.001564,0.000010,  49.621
   521.0,0.000041,0.000037,-0.002693,0.000046,  49.619
   521.2,0.000045,0.000035,-0.002647,0.000010,  49.616
   521.4,0.000041,0.000036,-0.002198,0.000010,  49.616
   521.6,0.000039,0.000037,-0.001307,0.000033,  49.617
   521.8,0.000039,0.000034,-0.000974,-0.000016,  49.615
   522.0,0.000034,0.000036,-0.000707,-0.000016,  49.626
   522.2,0.000023,0.000033,-0.000513,0.000033,  49.630
   522.4,0.000023,0.000031,-0.000374,0.000033,  49.638
   522.6,0.000012,0.000037,-0.000312,0.000033,  49.652
   522.8,-0.000004,0.000040,-0.000311,-0.000003,  49.650
   523.0,-0.000013,0.000040,-0.000259,0.000033,  49.636
   523.2,-0.000019,0.000033,-0.000197,-0.000003,  49.616
   523.4,-0.000012,0.000027,-0.000150,-0.000003,  49.618
   523.6,-0.000005,0.000019,-0.000099,0.000033,  49.619
   523.8,-0.000003,0.000007,-0.000042,-0.000003,  49.621
   524.0,0.000008,-0.000013,0.000011,-0.000003,  49.621
   524.2,0.000011,-0.000014,0.000070,0.000033,  49.625
   524.4,0.000010,-0.000009,0.000096,-0.000016,  49.619
   524.6,0.000015,-0.000003,0.000075,-0.000029,  49.620
   524.8,0.000011,-0.000003,0.000049,-0.000032,  49.622
   525.0,0.000009,-0.000002,-0.000477,-0.000068,  49.618
   525.2,0.000020,0.000001,-0.001279,-0.000055,  49.619
   525.4,0.000026,0.000002,-0.002333,-0.000032,  49.624
   525.6,0.000029,0.000003,-0.002467,-0.000055,  49.619
   525.8,0.000021,0.000005,-0.002273,-0.000042,  49.626
   526.0,0.000023,0.000012,-0.001752,-0.000006,  49.626
   526.2,0.000022,0.000016,-0.001512,-0.000029,  49.622
   526.4,0.000020,0.000009,-0.001260,-0.000029,  49.617
   526.6,0.000023,0.000012,-0.000983,-0.000006,  49.627
   526.8,0.000019,0.000016,-0.000778,-0.000029,  49.624
   527.0,0.000026,0.000008,-0.000620,-0.000029,  49.627
   527.2,0.000032,0.000012,-0.000492,-0.000006,  49.630
   527.4,0.000032,0.000014,-0.000415,-0.000029,  49.629
   527.6,0.000029,0.000016,-0.000368,-0.000016,  49.625
   527.8,0.000023,0.000024,-0.000383,0.000020,  49.636
   528.0,0.000020,0.000026,-0.000327,-0.000003,  49.637
   528.2,0.000026,0.000020,-0.000256,-0.000003,  49.637
   528.4,0.000026,0.000022,-0.000185,0.000020,  49.638
   528.6,0.000035,0.000022,-0.000176,0.000010,  49.645
   528.8,0.000028,0.000022,-0.000170,0.000010,  49.642
   529.0,0.000035,0.000023,-0.000205,0.000046,  49.640
   529.2,0.000032,0.000020,-0.000190,0.000010,  49.642
   529.4,0.000023,0.000022,-0.000174,0.000046,  49.643
   529.6,0.000023,0.000020,-0.000138,0.000055,  49.646
   529.8,0.000026,0.000019,-0.000147,0.000020,  49.640
   530.0,0.000019,0.000021,-0.000203,0.000020,  49.643
   530.2,0.000019,0.000023,-0.000274,0.000020,  49.643
   530.4,0.000026,0.000023,-0.000259,-0.000003,  49.645
   530.6,0.000011,0.000023,-0.000239,-0.000003,  49.647
   530.8,0.000002,0.000028,-0.000190,0.000020,  49.660
   531.0,-0.000013,0.000023,-0.000165,-0.000003,  49.686
   531.2,-0.000030,0.000021,-0.000134,-0.000003,  49.693
   531.4,-0.000034,0.000025,-0.000112,0.000020,  49.672
   531.6,-0.000044,0.000020,-0.000076,0.000020,  49.666
   531.8,-0.000051,0.000019,-0.000046,0.000033,  49.663
   532.0,-0.000042,0.000016,-0.000016,-0.000016,  49.666
   532.2,-0.000034,0.000006,0.000021,0.000020,  49.662
   532.4,-0.000032,-0.000003,0.000022,-0.000016,  49.661
   532.6,-0.000018,-0.000015,-0.000013,-0.000016,  49.666
   532.8,-0.000013,-0.000021,-0.000061,0.000020,  49.663
   533.0,-0.000007,-0.000023,-0.000098,-0.000016,  49.669
   533.2,-0.000002,-0.000018,-0.000134,-0.000055,  49.665
   533.4,0.000007,-0.000019,-0.000176,-0.000071,  49.671
   533.6,0.000012,-0.000019,-0.000434,-0.000107,  49.669
   533.8,0.000008,-0.000016,-0.000784,-0.000094,  49.670
   534.0,0.000017,-0.000010,-0.001241,-0.000045,  49.665
   534.2,0.000020,-0.000011,-0.001415,-0.000068,  49.670
   534.4,0.000014,-0.000005,-0.001509,-0.000055,  49.671
   534.6,0.000017,0.000004,-0.001513,-0.000006,  49.670
   534.8,0.000017,0.000001,-0.001411,-0.000029,  49.667
   535.0,0.000017,0.000004,-0.001227,-0.000029,  49.670
   535.2,0.000024,0.000002,-0.000935,-0.000006,  49.673
   535.4,0.000024,0.000004,-0.000762,-0.000029,  49.676
   535.6,0.000020,0.000004,-0.000608,-0.000029,  49.671
   535.8,0.000020,0.000008,-0.000481,0.000007,  49.674
   536.0,0.000020,0.000011,-0.000389,-0.000016,  49.675
   536.2,0.000016,0.000010,-0.000337,-0.000029,  49.672
   536.4,0.000011,0.000016,-0.000327,0.000007,  49.679
   536.6,0.000008,0.000013,-0.000291,-0.000016,  49.677
   536.8,0.000008,0.000010,-0.000280,-0.000016,  49.679
   537.0,0.000008,0.000012,-0.000297,0.000020,  49.678
   537.2,0.000006,0.000011,-0.000318,-0.000003,  49.679
   537.4,0.000002,0.000006,-0.000337,-0.000003,  49.677
   537.6,0.000008,0.000014,-0.000378,0.000020,  49.678
   537.8,0.000006,0.000016,-0.000369,-0.000003,  49.675
   538.0,0.000002,0.000013,-0.000339,-0.000003,  49.680
   538.2,-0.000001,0.000018,-0.000266,0.000020,  49.683
   538.4,-0.000003,0.000018,-0.000221,-0.000003,  49.683
   538.6,-0.000007,0.000014,-0.000186,-0.000003,  49.678
   538.8,-0.000007,0.000010,-0.000156,0.000020,  49.682
   539.0,0.000002,0.000013,-0.000182,-0.000003,  49.683
   539.2,-0.000015,0.000013,-0.000227,-0.000003,  49.684
   539.4,-0.000024,0.000011,-0.000324,0.000020,  49.694
   539.6,-0.000039,0.000009,-0.000354,-0.000003,  49.705
   539.8,-0.000054,0.000010,-0.000384,-0.000016,  49.710
   540.0,-0.000055,0.000006,-0.000399,0.000007,  49.690
   540.2,-0.000060,-0.000004,-0.000399,-0.000016,  49.685
   540.4,-0.000061,-0.000003,-0.000393,-0.000029,  49.687
   540.6,-0.000042,-0.000008,-0.000389,0.000007,  49.691
   540.8,-0.000029,-0.000018,-0.000357,0.000007,  49.689
   541.0,-0.000024,-0.000021,-0.000310,0.000007,  49.691
   541.2,-0.000007,-0.000029,-0.000257,-0.000029,  49.693
   541.4,0.000003,-0.000031,-0.000190,0.000007,  49.695
   541.6,0.000007,-0.000032,-0.000230,-0.000042,  49.698
   541.8,0.000016,-0.000024,-0.000312,-0.000081,  49.697
   542.0,0.000022,-0.000015,-0.000436,-0.000097,  49.695
   542.2,0.000020,-0.000007,-0.000442,-0.000120,  49.700
   542.4,0.000029,0.000008,-0.000418,-0.000107,  49.703
   542.6,0.000029,0.000012,-0.000351,-0.000081,  49.703
   542.8,0.000026,0.000020,-0.000306,-0.000091,  49.706
   543.0,0.000023,0.000017,-0.000239,-0.000042,  49.706
   543.2,0.000020,0.000021,-0.000188,-0.000006,  49.705
   543.4,0.000017,0.000023,-0.000419,-0.000029,  49.698
   543.6,0.000017,0.000020,-0.000799,-0.000029,  49.704
   543.8,0.000026,0.000019,-0.001327,0.000007,  49.700
   544.0,0.000022,0.000014,-0.001327,-0.000016,  49.703
   544.2,0.000022,0.000015,-0.001143,-0.000016,  49.702
   544.4,0.000028,0.000014,-0.000763,0.000033,  49.698
   544.6,0.000024,0.000013,-0.000641,-0.000003,  49.702
   544.8,0.000024,0.000012,-0.000538,0.000020,  49.701
   545.0,0.000028,0.000013,-0.000461,0.000029,  49.704
   545.2,0.000028,0.000015,-0.000420,0.000007,  49.698
   545.4,0.000028,0.000020,-0.000404,0.000055,  49.699
   545.6,0.000022,0.000023,-0.000418,0.000068,  49.699
   545.8,0.000026,0.000022,-0.000617,0.000033,  49.700
   546.0,0.000026,0.000023,-0.000945,0.000068,  49.698
   546.2,0.000026,0.000023,-0.001387,0.000055,  49.700
   546.4,0.000023,0.000020,-0.001504,0.000033,  49.702
   546.6,0.000019,0.000022,-0.001540,0.000033,  49.703
   546.8,0.000023,0.000022,-0.001469,0.000020,  49.704
   547.0,0.000027,0.000024,-0.001337,-0.000003,  49.695
   547.2,0.000023,0.000021,-0.001137,-0.000003,  49.697
   547.4,0.000023,0.000019,-0.000860,0.000020,  49.692
   547.6,0.000017,0.000021,-0.000691,-0.000003,  49.695
   547.8,0.000002,0.000021,-0.000558,-0.000003,  49.699
   548.0,-0.000010,0.000022,-0.000445,0.000033,  49.711
   548.2,-0.000030,0.000022,-0.000368,-0.000003,  49.716
   548.4,-0.000044,0.000021,-0.000321,-0.000003,  49.715
   548.6,-0.000052,0.000028,-0.000315,0.000033,  49.701
   548.8,-0.000051,0.000021,-0.000259,-0.000003,  49.691
   549.0,-0.000052,0.000012,-0.000197,-0.000003,  49.691
   549.2,-0.000038,0.000002,-0.000136,0.000033,  49.693
   549.4,-0.000018,-0.000006,-0.000079,0.000033,  49.691
   549.6,-0.000014,-0.000018,-0.000038,0.000033,  49.693
   549.8,-0.000002,-0.000025,0.000037,-0.000003,  49.685
   550.0,0.000000,-0.000024,0.000085,0.000033,  49.689
   550.2,-0.000001,-0.000022,0.000101,-0.000042,  49.689
   550.4,0.000008,-0.000013,0.000084,-0.000081,  49.685
   550.6,0.000006,-0.000007,0.000061,-0.000084,  49.688
   550.8,0.000005,-0.000005,-0.000165,-0.000120,  49.686
   551.0,0.000014,-0.000004,-0.000489,-0.000107,  49.682
   551.2,0.000014,-0.000005,-0.000940,-0.000045,  49.681
   551.4,0.000019,-0.000007,-0.000941,-0.000055,  49.684
   551.6,0.000024,-0.000000,-0.000778,-0.000006,  49.682
   551.8,0.000031,0.000005,-0.000445,0.000029,  49.674
   552.0,0.000033,0.000007,-0.000342,0.000007,  49.677
   552.2,0.000027,0.000008,-0.000275,0.000042,  49.681
   552.4,0.000031,0.000009,-0.000244,0.000029,  49.674
   552.6,0.000031,0.000006,-0.000192,0.000007,  49.679
   552.8,0.000022,0.000008,-0.000152,0.000055,  49.680
   553.0,0.000023,0.000003,-0.000138,0.000055,  49.671
   553.2,0.000016,0.000002,-0.000139,0.000033,  49.671
   553.4,0.000014,0.000004,-0.000138,0.000020,  49.672
   553.6,0.000011,0.000012,-0.000179,0.000007,  49.671
   553.8,0.000011,0.000014,-0.000170,-0.000016,  49.669
   554.0,0.000005,0.000012,-0.000154,-0.000016,  49.662
   554.2,0.000008,0.000009,-0.000124,0.000020,  49.665
   554.4,0.000008,0.000009,-0.000443,-0.000003,  49.664
   554.6,0.000008,0.000010,-0.000936,-0.000016,  49.660
   554.8,0.000008,0.000007,-0.001602,0.000007,  49.662
   555.0,0.000008,0.000002,-0.001572,-0.000016,  49.660
   555.2,0.000005,0.000008,-0.001275,-0.000029,  49.660
   555.4,0.000011,0.000005,-0.000733,0.000007,  49.656
   555.6,0.000011,0.000004,-0.000548,-0.000016,  49.655
   555.8,0.000010,0.000001,-0.000441,-0.000029,  49.659
   556.0,0.000022,0.000008,-0.000373,0.000007,  49.654
   556.2,0.000024,0.000012,-0.000425,-0.000016,  49.642
   556.4,0.000005,0.000007,-0.000579,-0.000029,  49.650
   556.6,-0.000010,0.000012,-0.000819,-0.000006,  49.661
   556.8,-0.000039,0.000014,-0.000757,-0.000029,  49.685
   557.0,-0.000056,0.000012,-0.000598,-0.000029,  49.670
   557.2,-0.000061,0.000016,-0.000331,0.000007,  49.660
   557.4,-0.000061,0.000012,-0.000274,-0.000016,  49.653
   557.6,-0.000060,-0.000000,-0.000268,-0.000016,  49.632
   557.8,-0.000047,-0.000017,-0.000307,0.000020,  49.634
   558.0,-0.000024,-0.000024,-0.000233,0.000020,  49.632
   558.2,-0.000018,-0.000032,-0.000129,0.000020,  49.632
   558.4,-0.000010,-0.000044,-0.000004,-0.000016,  49.633
   558.6,-0.000002,-0.000042,0.000048,0.000007,  49.631
   558.8,-0.000001,-0.000036,0.000078,-0.000055,  49.630
   559.0,0.000011,-0.000020,0.000087,-0.000107,  49.626
   559.2,0.000020,-0.000010,0.000065,-0.000123,  49.637
   559.4,0.000019,-0.000009,0.000090,-0.000146,  49.635
   559.6,0.000022,0.000004,0.000099,-0.000133,  49.630
   559.8,0.000031,0.000014,0.000119,-0.000071,  49.629
   560.0,0.000030,0.000018,0.000083,-0.000094,  49.628
   560.2,0.000032,0.000025,0.000012,-0.000068,  49.623
   560.4,0.000039,0.000027,-0.000079,-0.000032,  49.622
   560.6,0.000038,0.000033,-0.000075,-0.000055,  49.621
   560.8,0.000040,0.000035,-0.000044,-0.000042,  49.617
   561.0,0.000046,0.000034,0.000028,-0.000006,  49.616
   561.2,0.000039,0.000040,0.000069,-0.000029,  49.622
   561.4,0.000047,0.000042,0.000099,-0.000029,  49.619
   561.6,0.000045,0.000042,0.000131,0.000007,  49.620
   561.8,0.000036,0.000049,0.000127,-0.000016,  49.623
   562.0,0.000040,0.000051,0.000107,-0.000029,  49.618
   562.2,0.000040,0.000053,0.000061,0.000007,  49.617
   562.4,0.000034,0.000057,0.000087,-0.000016,  49.621
   562.6,0.000040,0.000051,0.000133,-0.000016,  49.618
   562.8,0.000037,0.000046,0.000183,0.000033,  49.615
   563.0,0.000037,0.000039,0.000155,-0.000003,  49.613
   563.2,0.000036,0.000033,0.000131,-0.000003,  49.616
   563.4,0.000036,0.000036,0.000055,0.000033,  49.618
   563.6,0.000035,0.000034,0.000045,-0.000003,  49.619
   563.8,0.000038,0.000032,0.000049,-0.000003,  49.614
   564.0,0.000047,0.000035,0.000075,0.000020,  49.611
   564.2,0.000049,0.000037,0.000116,-0.000003,  49.620
   564.4,0.000046,0.000035,0.000167,-0.000016,  49.617
   564.6,0.000048,0.000037,0.000234,0.000007,  49.616
   564.8,0.000051,0.000038,0.000189,-0.000016,  49.622
   565.0,0.000031,0.000044,0.000077,-0.000029,  49.635
   565.2,0.000017,0.000043,-0.000091,0.000007,  49.645
   565.4,-0.000018,0.000043,-0.000096,-0.000016,  49.650
   565.6,-0.000035,0.000043,-0.000060,-0.000016,  49.640
   565.8,-0.000031,0.000046,0.000022,0.000020,  49.624
   566.0,-0.000028,0.000033,0.000069,-0.000003,  49.620
   566.2,-0.000030,0.000021,0.000116,-0.000003,  49.621
   566.4,-0.000010,0.000009,0.000163,0.000033,  49.625
   566.6,0.000006,-0.000004,0.000250,-0.000003,  49.621
   566.8,0.000010,-0.000009,0.000355,-0.000003,  49.623
   567.0,0.000018,-0.000016,0.000464,0.000020,  49.617
   567.2,0.000014,-0.000013,0.000442,-0.000006,  49.615
   567.4,0.000019,-0.000004,0.000376,-0.000006,  49.612
   567.6,0.000025,0.000011,0.000247,-0.000094,  49.615
   567.8,0.000036,0.000020,0.000087,-0.000097,  49.619
   568.0,0.000030,0.000028,-0.000108,-0.000133,  49.619
   568.2,0.000036,0.000032,-0.000339,-0.000120,  49.615
   568.4,0.000043,0.000036,-0.000632,-0.000045,  49.621
   568.6,0.000039,0.000044,-0.000869,-0.000055,  49.619
   568.8,0.000044,0.000048,-0.001120,-0.000042,  49.619
   569.0,0.000047,0.000045,-0.001372,-0.000006,  49.621
   569.2,0.000043,0.000049,-0.001345,-0.000029,  49.620
   569.4,0.000043,0.000046,-0.001221,-0.000016,  49.619
   569.6,0.000044,0.000045,-0.000958,0.000020,  49.618
   569.8,0.000035,0.000047,-0.000748,-0.000003,  49.621
   570.0,0.000036,0.000040,-0.000498,-0.000003,  49.622
   570.2,0.000038,0.000043,-0.000217,0.000020,  49.624
   570.4,0.000031,0.000045,-0.000099,-0.000003,  49.621
   570.6,0.000035,0.000045,-0.000058,-0.000003,  49.618
   570.8,0.000038,0.000045,-0.000088,0.000033,  49.626
   571.0,0.000034,0.000045,-0.000043,-0.000003,  49.627
   571.2,0.000031,0.000041,0.000013,0.000033,  49.621
   571.4,0.000031,0.000039,0.000069,0.000068,  49.624
   571.6,0.000027,0.000037,0.000099,0.000033,  49.624
   571.8,0.000028,0.000035,0.000114,0.000033,  49.626
   572.0,0.000032,0.000036,0.000125,0.000020,  49.626
   572.2,0.000030,0.000034,-0.000359,-0.000003,  49.625
   572.4,0.000023,0.000032,-0.001093,-0.000003,  49.622
   572.6,0.000027,0.000030,-0.002071,0.000020,  49.622
   572.8,0.000024,0.000032,-0.002072,-0.000003,  49.623
   573.0,0.000018,0.000030,-0.001704,-0.000016,  49.617
   573.2,0.000024,0.000027,-0.000956,0.000007,  49.620
   573.4,0.000027,0.000026,-0.000725,-0.000016,  49.624
   573.6,0.000002,0.000028,-0.000565,-0.000029,  49.638
   573.8,-0.000018,0.000025,-0.000487,0.000007,  49.647
   574.0,-0.000048,0.000028,-0.000390,-0.000016,  49.647
   574.2,-0.000063,0.000035,-0.000303,-0.000029,  49.639
   574.4,-0.000065,0.000037,-0.000251,0.000007,  49.628
   574.6,-0.000057,0.000029,-0.000185,-0.000016,  49.622
   574.8,-0.000056,0.000012,-0.000118,-0.000029,  49.623
   575.0,-0.000048,-0.000006,-0.000046,0.000007,  49.623
   575.2,-0.000041,-0.000023,0.000046,-0.000016,  49.627
   575.4,-0.000033,-0.000034,0.000155,-0.000029,  49.629
   575.6,-0.000028,-0.000039,0.000285,-0.000006,  49.625
   575.8,-0.000016,-0.000040,0.000084,-0.000055,  49.628
   576.0,-0.000018,-0.000034,-0.000271,-0.000107,  49.633
   576.2,-0.000018,-0.000028,-0.000807,-0.000172,  49.630
   576.4,-0.000011,-0.000022,-0.000834,-0.000195,  49.635
   576.6,-0.000018,-0.000018,-0.000670,-0.000146,  49.631
   576.8,-0.000011,-0.000013,-0.000346,-0.000071,  49.633
   577.0,-0.000005,-0.000009,-0.000269,-0.000058,  49.633
   577.2,-0.000006,-0.000012,-0.000229,-0.000045,  49.634
   577.4,0.000009,-0.000005,-0.000229,-0.000068,  49.637
   577.6,0.000026,-0.000006,-0.000259,-0.000032,  49.634
   577.8,0.000024,-0.000007,-0.000214,-0.000055,  49.639
   578.0,0.000027,-0.000005,-0.000173,-0.000042,  49.639
   578.2,0.000031,-0.000003,-0.000117,-0.000006,  49.642
   578.4,0.000024,0.000004,-0.000112,-0.000029,  49.642
   578.6,0.000018,0.000013,-0.000117,-0.000029,  49.643
   578.8,0.000010,0.000020,-0.000141,-0.000006,  49.644
   579.0,0.000004,0.000015,-0.000106,-0.000029,  49.643
   579.2,0.000010,0.000024,-0.000040,-0.000029,  49.647
   579.4,0.000017,0.000022,0.000053,0.000007,  49.647
   579.6,0.000013,0.000022,-0.000179,-0.000016,  49.647
   579.8,0.000019,0.000020,-0.000574,-0.000029,  49.650
   580.0,0.000017,0.000020,-0.001138,0.000007,  49.644
   580.2,0.000013,0.000022,-0.001123,-0.000016,  49.650
   580.4,0.000014,0.000018,-0.000914,-0.000016,  49.651
   580.6,0.000009,0.000020,-0.000503,0.000020,  49.655
   580.8,0.000002,0.000022,-0.000396,-0.000003,  49.652
   581.0,0.000009,0.000019,-0.000334,-0.000003,  49.655
   581.2,0.000012,0.000019,-0.000313,0.000020,  49.655
   581.4,0.000010,0.000019,-0.000257,-0.000003,  49.655
   581.6,0.000010,0.000019,-0.000191,-0.000003,  49.656
   581.8,0.000003,0.000013,-0.000135,0.000020,  49.660
   582.0,0.000007,0.000010,-0.000073,-0.000003,  49.664
   582.2,-0.000011,0.000010,-0.000011,-0.000003,  49.669
   582.4,-0.000040,0.000008,0.000019,0.000020,  49.692
   582.6,-0.000077,0.000006,-0.000006,-0.000003,  49.699
   582.8,-0.000092,0.000011,-0.000056,-0.000016,  49.683
   583.0,-0.000089,0.000012,-0.000159,0.000007,  49.680
   583.2,-0.000072,0.000005,-0.000073,-0.000016,  49.685
   583.4,-0.000068,-0.000012,0.000097,-0.000029,  49.679
   583.6,-0.000055,-0.000028,0.000354,-0.000006,  49.680
   583.8,-0.000035,-0.000041,0.000180,-0.000029,  49.684
   584.0,-0.000031,-0.000055,-0.000200,-0.000042,  49.686
   584.2,-0.000020,-0.000068,-0.000746,-0.000019,  49.688
   584.4,-0.000011,-0.000069,-0.000783,-0.000081,  49.687
   584.6,-0.000013,-0.000052,-0.000644,-0.000120,  49.691
   584.8,-0.000001,-0.000032,-0.000363,-0.000149,  49.689
   585.0,0.000006,-0.000026,-0.000262,-0.000185,  49.692
   585.2,0.000005,-0.000017,-0.000160,-0.000159,  49.691
   585.4,0.000016,-0.000013,-0.000068,-0.000084,  49.691
   585.6,0.000019,-0.000005,-0.000043,-0.000071,  49.694
   585.8,0.000018,-0.000003,-0.000058,-0.000058,  49.697
   586.0,0.000029,0.000002,-0.000108,-0.000081,  49.694
   586.2,0.000029,0.000004,-0.000112,-0.000045,  49.693
   586.4,0.000026,0.000005,-0.000129,-0.000068,  49.691
   586.6,0.000032,0.000009,-0.000112,-0.000068,  49.699
   586.8,0.000029,0.000012,-0.000112,-0.000019,  49.691
   587.0,0.000026,0.000014,-0.000082,-0.000042,  49.694
   587.2,0.000029,0.000017,-0.000056,-0.000042,  49.701
   587.4,0.000024,0.000019,-0.000032,0.000007,  49.700
   587.6,0.000018,0.000021,0.000013,-0.000016,  49.700
   587.8,0.000024,0.000026,0.000054,-0.000016,  49.704
   588.0,0.000019,0.000026,0.000106,0.000020,  49.704
   588.2,0.000012,0.000025,-0.000111,-0.000003,  49.698
   588.4,0.000019,0.000023,-0.000464,-0.000003,  49.710
   588.6,0.000016,0.000018,-0.000956,0.000033,  49.707
   588.8,0.000012,0.000018,-0.001007,-0.000003,  49.705
   589.0,0.000022,0.000019,-0.000909,-0.000003,  49.708
   589.2,0.000024,0.000017,-0.000668,0.000033,  49.708
   589.4,0.000020,0.000015,-0.000561,-0.000003,  49.712
   589.6,0.000018,0.000015,-0.000448,-0.000003,  49.714
   589.8,0.000015,0.000015,-0.000334,0.000033,  49.711
   590.0,0.000009,0.000015,-0.000293,-0.000003,  49.713
   590.2,0.000002,0.000017,-0.000293,-0.000003,  49.713
   590.4,-0.000001,0.000019,-0.000313,0.000020,  49.713
   590.6,-0.000014,0.000021,-0.000251,-0.000003,  49.713
   590.8,-0.000039,0.000028,-0.000170,0.000020,  49.725
   591.0,-0.000059,0.000028,-0.000073,0.000042,  49.728
   591.2,-0.000084,0.000030,-0.000268,0.000020,  49.728
   591.4,-0.000086,0.000028,-0.000612,0.000042,  49.717
   591.6,-0.000077,0.000025,-0.001120,0.000042,  49.719
   591.8,-0.000067,0.000016,-0.001120,0.000020,  49.714
   592.0,-0.000068,0.000003,-0.000950,0.000042,  49.719
   592.2,-0.000060,-0.000015,-0.000605,0.000042,  49.721
   592.4,-0.000046,-0.000028,-0.000466,0.000007,  49.720
   592.6,-0.000047,-0.000039,-0.000331,0.000029,  49.724
   592.8,-0.000042,-0.000049,-0.000223,0.000003,  49.722
   593.0,-0.000027,-0.000047,-0.000208,-0.000045,  49.722
   593.2,-0.000026,-0.000042,-0.000238,-0.000084,  49.719
   593.4,-0.000020,-0.000028,-0.000336,-0.000136,  49.721
   593.6,-0.000011,-0.000020,-0.000357,-0.000159,  49.719
   593.8,-0.000013,-0.000022,-0.000383,-0.000146,  49.714
   594.0,-0.000010,-0.000021,-0.000408,-0.000071,  49.712
   594.2,-0.000003,-0.000022,-0.000384,-0.000094,  49.715
   594.4,-0.000005,-0.000018,-0.000328,-0.000081,  49.717
   594.6,-0.000002,-0.000013,-0.000253,-0.000045,  49.714
   594.8,0.000007,-0.000013,-0.000218,-0.000045,  49.712
   595.0,0.000003,-0.000014,-0.000198,-0.000032,  49.708
   595.2,0.000003,-0.000015,-0.000178,-0.000068,  49.707
   595.4,0.000005,-0.000015,-0.000168,-0.000019,  49.710
   595.6,-0.000002,-0.000014,-0.000147,-0.000042,  49.707
   595.8,0.000001,-0.000006,-0.000153,-0.000055,  49.703
   596.0,0.000007,-0.000002,-0.000163,-0.000019,  49.705
   596.2,0.000003,-0.000007,-0.000148,-0.000042,  49.703
   596.4,0.000006,0.000002,-0.000129,-0.000042,  49.700
   596.6,0.000015,0.000006,-0.000092,0.000007,  49.700
   596.8,0.000011,0.000008,-0.000278,-0.000016,  49.697
   597.0,0.000011,0.000013,-0.000554,-0.000029,  49.697
   597.2,0.000020,0.000015,-0.000944,0.000007,  49.697
   597.4,0.000017,0.000019,-0.000950,-0.000016,  49.698
   597.6,0.000014,0.000016,-0.000806,-0.000016,  49.698
   597.8,0.000020,0.000021,-0.000535,0.000020,  49.693
   598.0,0.000017,0.000023,-0.000467,-0.000003,  49.692
   598.2,0.000014,0.000025,-0.000446,0.000020,  49.694
   598.4,0.000018,0.000027,-0.000465,0.000042,  49.692
   598.6,0.000011,0.000024,-0.000413,0.000020,  49.690
   598.8,0.000009,0.000022,-0.000361,0.000020,  49.693
   599.0,0.000010,0.000017,-0.000299,0.000020,  49.693
   599.2,-0.000006,0.000014,-0.000265,-0.000003,  49.698
   599.4,-0.000031,0.000012,-0.000224,-0.000016,  49.702
   599.6,-0.000060,0.000015,-0.000177,0.000007,  49.715
   599.8,-0.000092,0.000017,-0.000166,-0.000016,  49.700
   600.0,-0.000098,0.000018,-0.000166,-0.000029,  49.695
   600.2,-0.000081,0.000025,-0.000176,0.000007,  49.694
   600.4,-0.000060,0.000015,-0.000210,-0.000016,  49.691
   600.6,-0.000056,-0.000007,-0.000281,-0.000016,  49.696
   600.8,-0.000039,-0.000029,-0.000383,0.000020,  49.691
   601.0,-0.000028,-0.000037,-0.000362,-0.000003,  49.692
   601.2,-0.000027,-0.000045,-0.000321,-0.000016,  49.690
   601.4,-0.000015,-0.000038,-0.000238,-0.000006,  49.694
   601.6,-0.000010,-0.000030,-0.000208,-0.000042,  49.690
   601.8,-0.000008,-0.000031,-0.000192,-0.000068,  49.693
   602.0,0.000001,-0.000015,-0.000209,-0.000071,  49.694
   602.2,0.000007,-0.000010,-0.000185,-0.000107,  49.690
   602.4,0.000006,-0.000009,-0.000133,-0.000081,  49.689
   602.6,0.000011,-0.000005,-0.000093,-0.000032,  49.686
   602.8,0.000018,-0.000001,-0.000041,-0.000055,  49.684
   603.0,0.000014,0.000001,-0.000017,-0.000042,  49.685
   603.2,0.000010,0.000008,0.000024,-0.000006,  49.685
   603.4,0.000010,0.000012,0.000013,-0.000006,  49.681
   603.6,0.000006,0.000008,-0.000043,0.000007,  49.681
   603.8,0.000013,0.000012,-0.000124,-0.000029,  49.683
   604.0,0.000017,0.000012,-0.000165,0.000007,  49.677
   604.2,0.000013,0.000013,-0.000186,-0.000016,  49.680
   604.4,0.000019,0.000017,-0.000200,-0.000029,  49.678
   604.6,0.000026,0.000016,-0.000221,0.000007,  49.679
   604.8,0.000019,0.000021,-0.000422,-0.000016,  49.681
   605.0,0.000019,0.000025,-0.000704,0.000007,  49.674
   605.2,0.000023,0.000021,-0.001058,0.000042,  49.676
   605.4,0.000019,0.000019,-0.001182,0.000020,  49.675
   605.6,0.000017,0.000015,-0.001223,0.000007,  49.675
   605.8,0.000011,0.000010,-0.001186,0.000007,  49.673
   606.0,0.000007,0.000010,-0.001099,-0.000016,  49.676
   606.2,0.000011,0.000012,-0.000971,-0.000029,  49.675
   606.4,0.000009,0.000015,-0.000776,0.000007,  49.676
   606.6,0.000002,0.000006,-0.000659,-0.000016,  49.674
   606.8,0.000009,0.000012,-0.000541,-0.000029,  49.674
   607.0,0.000006,0.000010,-0.000449,0.000007,  49.674
   607.2,-0.000003,0.000006,-0.000363,-0.000016,  49.675
   607.4,-0.000005,0.000010,-0.000275,0.000007,  49.673
   607.6,-0.000015,0.000010,-0.000198,0.000042,  49.675
   607.8,-0.000043,0.000010,-0.000168,0.000020,  49.686
   608.0,-0.000068,0.000006,-0.000178,0.000007,  49.689
   608.2,-0.000107,0.000008,-0.000198,0.000007,  49.697
   608.4,-0.000119,0.000008,-0.000188,-0.000016,  49.691
   608.6,-0.000110,0.000003,-0.000194,-0.000016,  49.674
   608.8,-0.000090,0.000003,-0.000183,0.000020,  49.672
   609.0,-0.000085,-0.000011,-0.000157,-0.000003,  49.670
   609.2,-0.000077,-0.000034,-0.000132,0.000020,  49.677
   609.4,-0.000076,-0.000059,-0.000095,0.000042,  49.668
   609.6,-0.000061,-0.000071,-0.000085,0.000007,  49.676
   609.8,-0.000054,-0.000075,-0.000079,0.000029,  49.679
   610.0,-0.000051,-0.000068,-0.000105,0.000003,  49.678
   610.2,-0.000048,-0.000069,-0.000100,-0.000045,  49.678
   610.4,-0.000047,-0.000063,-0.000112,-0.000058,  49.672
   610.6,-0.000035,-0.000055,-0.000113,-0.000084,  49.677
   610.8,-0.000023,-0.000054,-0.000115,-0.000120,  49.667
   611.0,-0.000022,-0.000044,-0.000115,-0.000071,  49.667
   611.2,-0.000019,-0.000040,-0.000125,-0.000010,  49.669
   611.4,-0.000026,-0.000036,-0.000172,-0.000032,  49.670
   611.6,-0.000030,-0.000034,-0.000224,0.000003,  49.673
   611.8,-0.000020,-0.000029,-0.000289,-0.000010,  49.662
   612.0,-0.000020,-0.000027,-0.000355,-0.000032,  49.664
   612.2,-0.000027,-0.000029,-0.000443,-0.000032,  49.664
   612.4,-0.000020,-0.000022,-0.000535,-0.000019,  49.663
   612.6,-0.000014,-0.000019,-0.000535,-0.000042,  49.663
   612.8,-0.000020,-0.000018,-0.000505,-0.000042,  49.662
   613.0,-0.000018,-0.000013,-0.000444,-0.000006,  49.663
   613.2,-0.000011,-0.000011,-0.000440,-0.000006,  49.661
   613.4,-0.000015,-0.000010,-0.000429,0.000007,  49.664
   613.6,-0.000013,-0.000010,-0.000455,-0.000029,  49.660
   613.8,-0.000006,-0.000013,-0.000474,-0.000006,  49.661
   614.0,-0.000010,-0.000017,-0.000495,-0.000029,  49.661
   614.2,-0.000013,-0.000016,-0.000515,-0.000029,  49.660
   614.4,-0.000015,-0.000019,-0.000545,-0.000006,  49.660
   614.6,-0.000019,-0.000014,-0.000515,-0.000029,  49.661
   614.8,-0.000013,-0.000008,-0.000480,-0.000029,  49.660
   615.0,-0.000003,-0.000010,-0.000409,-0.000006,  49.656
   615.2,-0.000007,-0.000010,-0.000373,-0.000029,  49.661
   615.4,-0.000007,-0.000008,-0.000358,-0.000029,  49.656
   615.6,0.000002,-0.000008,-0.000347,-0.000006,  49.659
   615.8,-0.000005,-0.000006,-0.000373,-0.000029,  49.657
   616.0,-0.000007,-0.000006,-0.000418,-0.000006,  49.655
   616.2,-0.000006,-0.000005,-0.000506,0.000016,  49.663
   616.4,-0.000034,-0.000005,-0.000557,-0.000006,  49.670
   616.6,-0.000065,-0.000002,-0.000586,0.000029,  49.677
   616.8,-0.000106,0.000002,-0.000631,0.000029,  49.683
   617.0,-0.000115,0.000002,-0.000606,0.000007,  49.674
   617.2,-0.000105,0.000001,-0.000560,0.000007,  49.668
   617.4,-0.000075,0.000007,-0.000468,-0.000006,  49.659
   617.6,-0.000068,-0.000008,-0.000432,-0.000029,  49.663
   617.8,-0.000057,-0.000027,-0.000411,-0.000029,  49.664
   618.0,-0.000047,-0.000050,-0.000393,-0.000006,  49.661
   618.2,-0.000042,-0.000060,-0.000552,-0.000042,  49.663
   618.4,-0.000034,-0.000064,-0.000793,-0.000019,  49.662
   618.6,-0.000031,-0.000055,-0.001141,-0.000010,  49.662
   618.8,-0.000024,-0.000055,-0.001152,-0.000045,  49.660
   619.0,-0.000019,-0.000052,-0.001045,-0.000010,  49.665
   619.2,-0.000014,-0.000038,-0.000825,-0.000023,  49.663
   619.4,-0.000009,-0.000035,-0.000769,-0.000058,  49.665
   619.6,-0.000007,-0.000031,-0.000733,-0.000010,  49.664
   619.8,0.000002,-0.000021,-0.000727,-0.000023,  49.656
   620.0,0.000011,-0.000017,-0.000686,-0.000058,  49.663
   620.2,0.000007,-0.000011,-0.000639,0.000003,  49.662
   620.4,0.000019,-0.000001,-0.000609,0.000003,  49.657
   620.6,0.000019,-0.000000,-0.000558,-0.000019,  49.660
   620.8,0.000015,0.000003,-0.000506,0.000016,  49.664
   621.0,0.000024,0.000006,-0.000470,0.000016,  49.659
   621.2,0.000027,0.000008,-0.000440,-0.000006,  49.664
   621.4,0.000023,0.000010,-0.000398,0.000029,  49.661
   621.6,0.000027,0.000011,-0.000387,0.000029,  49.658
   621.8,0.000027,0.000013,-0.000361,0.000007,  49.655
   622.0,0.000023,0.000018,-0.000325,0.000042,  49.654
   622.2,0.000029,0.000024,-0.000304,0.000029,  49.653
   622.4,0.000032,0.000028,-0.000289,0.000042,  49.651
   622.6,0.000026,0.000023,-0.000269,0.000007,  49.634
   622.8,0.000026,0.000022,-0.000254,0.000055,  49.634
   623.0,0.000023,0.000023,-0.000228,0.000055,  49.632
   623.2,0.000019,0.000021,-0.000244,0.000033,  49.636
   623.4,0.000014,0.000021,-0.000269,0.000068,  49.630
   623.6,0.000015,0.000018,-0.000299,0.000055,  49.630
   623.8,0.000009,0.000018,-0.000295,0.000033,  49.623
   624.0,0.000006,0.000021,-0.000280,0.000068,  49.626
   624.2,0.000001,0.000018,-0.000244,0.000055,  49.626
   624.4,-0.000008,0.000020,-0.000269,0.000033,  49.619
   624.6,-0.000005,0.000029,-0.000304,0.000020,  49.623
   624.8,-0.000006,0.000029,-0.000381,0.000007,  49.628
   625.0,-0.000036,0.000024,-0.000381,-0.000016,  49.640
   625.2,-0.000071,0.000025,-0.000351,-0.000029,  49.642
   625.4,-0.000112,0.000016,-0.000310,0.000007,  49.653
   625.6,-0.000123,0.000012,-0.000311,-0.000016,  49.633
   625.8,-0.000113,0.000011,-0.000307,-0.000029,  49.627
   626.0,-0.000085,0.000010,-0.000317,-0.000006,  49.621
   626.2,-0.000081,-0.000015,-0.000272,-0.000029,  49.622
   626.4,-0.000071,-0.000040,-0.000172,-0.000029,  49.620
   626.6,-0.000054,-0.000075,-0.000064,-0.000006,  49.621
   626.8,-0.000046,-0.000083,-0.000068,-0.000042,  49.623
   627.0,-0.000047,-0.000087,-0.000124,-0.000055,  49.616
   627.2,-0.000044,-0.000075,-0.000226,-0.000058,  49.620
   627.4,-0.000042,-0.000071,-0.000253,-0.000094,  49.619
   627.6,-0.000040,-0.000061,-0.000244,-0.000094,  49.617
   627.8,-0.000026,-0.000050,-0.000230,-0.000071,  49.619
   628.0,-0.000020,-0.000051,-0.000287,-0.000107,  49.620
   628.2,-0.000022,-0.000050,-0.000354,-0.000094,  49.620
   628.4,-0.000022,-0.000044,-0.000461,-0.000045,  49.624
   628.6,-0.000022,-0.000046,-0.000502,-0.000068,  49.624
   628.8,-0.000028,-0.000035,-0.000523,-0.000068,  49.623
   629.0,-0.000022,-0.000024,-0.000544,-0.000019,  49.624
   629.2,-0.000018,-0.000025,-0.000554,-0.000042,  49.625
   629.4,-0.000022,-0.000021,-0.000538,-0.000055,  49.625
   629.6,-0.000015,-0.000017,-0.000538,-0.000019,  49.629
   629.8,-0.000009,-0.000018,-0.000544,-0.000042,  49.625
   630.0,-0.000013,-0.000018,-0.000548,-0.000019,  49.627
   630.2,-0.000010,-0.000010,-0.000564,0.000016,  49.627
   630.4,-0.000001,-0.000009,-0.000529,-0.000006,  49.628
   630.6,-0.000002,-0.000012,-0.000473,-0.000006,  49.628
   630.8,-0.000002,-0.000006,-0.000391,-0.000006,  49.631
   631.0,0.000005,-0.000002,-0.000494,-0.000006,  49.632
   631.2,-0.000002,-0.000006,-0.000669,-0.000029,  49.632
   631.4,-0.000002,-0.000002,-0.000936,0.000007,  49.629
   631.6,0.000002,-0.000005,-0.001280,0.000042,  49.631
   631.8,-0.000005,-0.000003,-0.001228,0.000020,  49.631
   632.0,0.000001,-0.000004,-0.001064,0.000042,  49.629
   632.2,0.000012,-0.000002,-0.000808,0.000029,  49.635
   632.4,0.000009,-0.000001,-0.000725,0.000007,  49.634
   632.6,0.000011,0.000006,-0.000678,0.000042,  49.639
   632.8,0.000012,0.000006,-0.000683,0.000029,  49.632
   633.0,0.000003,0.000008,-0.000662,0.000007,  49.629
   633.2,0.000001,0.000010,-0.000662,0.000042,  49.631
   633.4,-0.000001,0.000012,-0.000677,0.000029,  49.637
   633.6,-0.000020,0.000016,-0.000651,0.000042,  49.639
   633.8,-0.000044,0.000014,-0.000615,0.000029,  49.654
   634.0,-0.000067,0.000022,-0.000579,0.000052,  49.653
   634.2,-0.000073,0.000019,-0.000523,0.000029,  49.641
   634.4,-0.000065,0.000020,-0.000450,0.000016,  49.632
   634.6,-0.000049,0.000013,-0.000390,0.000016,  49.633
   634.8,-0.000042,-0.000007,-0.000369,-0.000006,  49.633
   635.0,-0.000036,-0.000029,-0.000372,0.000029,  49.634
   635.2,-0.000024,-0.000056,-0.000416,0.000042,  49.630
   635.4,-0.000015,-0.000062,-0.000405,0.000007,  49.630
   635.6,-0.000007,-0.000061,-0.000395,0.000016,  49.622
   635.8,0.000000,-0.000048,-0.000380,-0.000010,  49.629
   636.0,0.000006,-0.000041,-0.000488,-0.000045,  49.626
   636.2,0.000010,-0.000031,-0.000663,-0.000010,  49.626
   636.4,0.000015,-0.000023,-0.000900,-0.000023,  49.627
   636.6,0.000014,-0.000013,-0.000876,-0.000058,  49.624
   636.8,0.000013,-0.000005,-0.000737,0.000003,  49.624
   637.0,0.000019,-0.000001,-0.000485,0.000003,  49.629
   637.2,0.000019,0.000005,-0.000470,0.000003,  49.626
   637.4,0.000013,0.000009,-0.000515,0.000003,  49.617
   637.6,0.000019,0.000015,-0.000623,0.000026,  49.618
   637.8,0.000019,0.000010,-0.000601,0.000003,  49.613
   638.0,0.000015,0.000014,-0.000571,0.000016,  49.612
   638.2,0.000024,0.000016,-0.000509,0.000029,  49.618
   638.4,0.000027,0.000013,-0.000449,0.000007,  49.613
   638.6,0.000023,0.000013,-0.000382,0.000042,  49.611
   638.8,0.000030,0.000016,-0.000284,0.000042,  49.613
   639.0,0.000027,0.000023,-0.000342,0.000042,  49.609
   639.2,0.000026,0.000021,-0.000428,0.000007,  49.610
   639.4,0.000035,0.000017,-0.000613,0.000042,  49.610
   639.6,0.000041,0.000025,-0.000832,0.000042,  49.612
   639.8,0.000041,0.000031,-0.000822,0.000020,  49.611
   640.0,0.000036,0.000035,-0.000766,0.000042,  49.609
   640.2,0.000036,0.000033,-0.000648,0.000042,  49.609
   640.4,0.000034,0.000037,-0.000603,0.000020,  49.606
   640.6,0.000036,0.000036,-0.000577,0.000042,  49.611
   640.8,0.000045,0.000032,-0.000540,0.000042,  49.608
   641.0,0.000044,0.000037,-0.000488,0.000020,  49.607
   641.2,0.000044,0.000037,-0.000443,0.000042,  49.606
   641.4,0.000038,0.000037,-0.000386,0.000042,  49.608
   641.6,0.000028,0.000040,-0.000345,0.000020,  49.606
   641.8,0.000027,0.000041,-0.000304,0.000042,  49.609
   642.0,0.000026,0.000044,-0.000268,0.000042,  49.613
   642.2,0.000006,0.000041,-0.000247,0.000020,  49.624
   642.4,-0.000015,0.000041,-0.000251,0.000055,  49.628
   642.6,-0.000032,0.000037,-0.000254,0.000055,  49.633
   642.8,-0.000036,0.000033,-0.000229,0.000033,  49.612
   643.0,-0.000031,0.000035,-0.000203,0.000068,  49.610
   643.2,-0.000009,0.000036,-0.000168,0.000055,  49.602
   643.4,-0.000007,0.000013,-0.000106,0.000033,  49.606
   643.6,-0.000002,-0.000014,-0.000028,0.000055,  49.606
   643.8,0.000001,-0.000048,0.000061,0.000042,  49.605
   644.0,0.000006,-0.000049,0.000067,0.000007,  49.603
   644.2,0.000007,-0.000046,0.000037,-0.000019,  49.604
   644.4,0.000019,-0.000015,-0.000051,-0.000045,  49.599
   644.6,0.000024,-0.000007,-0.000041,-0.000081,  49.605
   644.8,0.000021,-0.000003,-0.000011,-0.000045,  49.607
   645.0,0.000027,0.000001,0.000034,-0.000010,  49.603
   645.2,0.000027,0.000004,0.000024,-0.000032,  49.604
   645.4,0.000021,0.000010,-0.000007,0.000003,  49.603
   645.6,0.000027,0.000013,-0.000084,0.000016,  49.607
   645.8,0.000027,0.000016,-0.000084,-0.000006,  49.605
   646.0,0.000021,0.000020,-0.000069,-0.000006,  49.605
   646.2,0.000027,0.000029,-0.000049,0.000007,  49.605
   646.4,0.000027,0.000025,-0.000025,-0.000016,  49.600
   646.6,0.000021,0.000025,0.000022,-0.000029,  49.606
   646.8,0.000027,0.000022,0.000063,0.000007,  49.605
   647.0,0.000024,0.000022,0.000072,-0.000016,  49.607
   647.2,0.000015,0.000018,0.000068,-0.000029,  49.607
   647.4,0.000022,0.000019,0.000063,0.000007,  49.610
   647.6,0.000019,0.000017,-0.000087,-0.000016,  49.609
   647.8,0.000010,0.000020,-0.000312,0.000007,  49.615
   648.0,0.000017,0.000025,-0.000620,0.000029,  49.617
   648.2,0.000017,0.000020,-0.000692,0.000029,  49.617
   648.4,0.000013,0.000022,-0.000666,0.000029,  49.618
   648.6,0.000019,0.000022,-0.000595,0.000042,  49.622
   648.8,0.000023,0.000017,-0.000420,0.000029,  49.621
   649.0,0.000022,0.000022,-0.000364,0.000007,  49.620
   649.2,0.000022,0.000018,-0.000318,0.000042,  49.623
   649.4,0.000028,0.000015,-0.000277,0.000029,  49.624
   649.6,0.000024,0.000017,-0.000251,0.000007,  49.627
   649.8,0.000018,0.000015,-0.000242,0.000007,  49.630
   650.0,0.000015,0.000017,-0.000247,-0.000006,  49.633
   650.2,0.000004,0.000014,-0.000251,-0.000029,  49.634
   650.4,-0.000004,0.000016,-0.000277,-0.000029,  49.635
   650.6,-0.000008,0.000016,-0.000318,-0.000006,  49.644
   650.8,-0.000023,0.000011,-0.000292,-0.000029,  49.647
   651.0,-0.000024,0.000019,-0.000262,-0.000029,  49.659
   651.2,-0.000026,0.000019,-0.000216,-0.000006,  49.654
   651.4,-0.000032,0.000019,-0.000207,-0.000029,  49.644
   651.6,-0.000020,0.000022,-0.000201,0.000007,  49.642
   651.8,-0.000013,0.000018,-0.000210,0.000029,  49.637
   652.0,-0.000011,0.000000,-0.000189,0.000007,  49.638
   652.2,0.000001,-0.000023,-0.000152,0.000042,  49.636
   652.4,0.000009,-0.000051,-0.000097,0.000042,  49.638
   652.6,0.000017,-0.000055,-0.000091,0.000007,  49.637
   652.8,0.000015,-0.000051,-0.000102,0.000016,  49.634
   653.0,0.000024,-0.000031,-0.000128,-0.000010,  49.633
   653.2,0.000027,-0.000021,-0.000132,-0.000045,  49.632
   653.4,0.000026,-0.000015,-0.000164,-0.000010,  49.634
   653.6,0.000032,-0.000006,-0.000196,-0.000010,  49.630
   653.8,0.000032,-0.000003,-0.000161,-0.000032,  49.634
   654.0,0.000026,0.000005,-0.000099,0.000003,  49.635
   654.2,0.000030,0.000015,-0.000011,0.000016,  49.635
   654.4,0.000027,0.000017,-0.000002,-0.000006,  49.631
   654.6,0.000021,0.000027,-0.000001,0.000029,  49.634
   654.8,0.000027,0.000036,-0.000020,0.000042,  49.628
   655.0,0.000034,0.000031,-0.000026,0.000020,  49.631
   655.2,0.000027,0.000036,-0.000020,0.000042,  49.631
   655.4,0.000027,0.000037,-0.000031,0.000042,  49.630
   655.6,0.000024,0.000034,-0.000041,0.000020,  49.628
   655.8,0.000015,0.000031,-0.000041,0.000042,  49.634
   656.0,0.000019,0.000033,-0.000057,0.000042,  49.630
   656.2,0.000020,0.000033,-0.000037,0.000020,  49.634
   656.4,0.000014,0.000029,-0.000007,0.000042,  49.635
   656.6,0.000011,0.000024,0.000034,0.000042,  49.633
   656.8,0.000020,0.000019,0.000019,0.000042,  49.635
   657.0,0.000018,0.000021,-0.000028,0.000042,  49.636
   657.2,0.000010,0.000024,-0.000094,0.000029,  49.633
   657.4,0.000015,0.000016,-0.000186,0.000052,  49.634
   657.6,0.000006,0.000015,-0.000208,0.000065,  49.630
   657.8,-0.000003,0.000013,-0.000218,0.000016,  49.640
   658.0,-0.000003,0.000006,-0.000208,0.000052,  49.638
   658.2,-0.000010,0.000002,-0.000248,0.000065,  49.632
   658.4,-0.000015,0.000003,-0.000306,0.000016,  49.634
   658.6,-0.000014,-0.000002,-0.000372,0.000052,  49.629
   658.8,-0.000028,0.000000,-0.000353,0.000065,  49.629
   659.0,-0.000039,0.000000,-0.000292,0.000016,  49.633
   659.2,-0.000046,0.000000,-0.000185,0.000052,  49.636
   659.4,-0.000063,-0.000004,-0.000154,0.000029,  49.643
   659.6,-0.000076,-0.000004,-0.000171,0.000029,  49.654
   659.8,-0.000086,-0.000006,-0.000213,0.000029,  49.640
   660.0,-0.000093,-0.000010,-0.000260,0.000029,  49.626
   660.2,-0.000084,-0.000019,-0.000343,0.000029,  49.627
   660.4,-0.000072,-0.000025,-0.000441,0.000039,  49.625
   660.6,-0.000071,-0.000044,-0.000441,0.000016,  49.625
   660.8,-0.000068,-0.000064,-0.000410,0.000029,  49.625
   661.0,-0.000056,-0.000087,-0.000330,0.000029,  49.625
   661.2,-0.000055,-0.000091,-0.000509,-0.000019,  49.620
   661.4,-0.000052,-0.000091,-0.000808,-0.000010,  49.619
   661.6,-0.000049,-0.000082,-0.001230,-0.000062,  49.620
   661.8,-0.000047,-0.000073,-0.001272,-0.000084,  49.617
   662.0,-0.000051,-0.000067,-0.001174,-0.000049,  49.620
   662.2,-0.000044,-0.000064,-0.000965,-0.000036,  49.621
   662.4,-0.000044,-0.000062,-0.000889,-0.000058,  49.616
   662.6,-0.000044,-0.000054,-0.000818,-0.000010,  49.617
   662.8,-0.000040,-0.000044,-0.000748,-0.000010,  49.613
   663.0,-0.000043,-0.000047,-0.000677,-0.000045,  49.615
   663.2,-0.000049,-0.000040,-0.000600,-0.000010,  49.611
   663.4,-0.000044,-0.000036,-0.000539,-0.000010,  49.612
   663.6,-0.000035,-0.000039,-0.000669,-0.000045,  49.610
   663.8,-0.000039,-0.000040,-0.000879,0.000003,  49.609
   664.0,-0.000027,-0.000043,-0.001176,0.000003,  49.609
   664.2,-0.000015,-0.000039,-0.001160,-0.000032,  49.608
   664.4,-0.000019,-0.000041,-0.001053,0.000016,  49.608
   664.6,-0.000017,-0.000039,-0.000833,0.000003,  49.603
   664.8,-0.000014,-0.000035,-0.000771,-0.000032,  49.606
   665.0,-0.000018,-0.000035,-0.000729,0.000016,  49.609
   665.2,-0.000018,-0.000036,-0.000740,0.000003,  49.606
   665.4,-0.000014,-0.000035,-0.000740,-0.000019,  49.607
   665.6,-0.000018,-0.000033,-0.000744,0.000029,  49.603
   665.8,-0.000018,-0.000025,-0.000770,0.000029,  49.605
   666.0,-0.000009,-0.000023,-0.000755,0.000029,  49.607
   666.2,-0.000013,-0.000021,-0.000704,0.000029,  49.610
   666.4,-0.000015,-0.000016,-0.000663,0.000029,  49.608
   666.6,-0.000009,-0.000013,-0.000596,0.000039,  49.610
   666.8,-0.000010,-0.000019,-0.000612,0.000016,  49.609
   667.0,-0.000005,-0.000013,-0.000652,0.000029,  49.616
   667.2,0.000010,-0.000010,-0.000719,0.000029,  49.610
   667.4,-0.000002,-0.000011,-0.000734,0.000007,  49.608
   667.6,-0.000018,-0.000008,-0.000738,0.000042,  49.616
   667.8,-0.000032,-0.000007,-0.000738,0.000029,  49.612
   668.0,-0.000047,-0.000008,-0.000775,0.000007,  49.627
   668.2,-0.000057,-0.000004,-0.000809,0.000029,  49.633
   668.4,-0.000056,-0.000002,-0.000876,0.000016,  49.616
   668.6,-0.000057,-0.000006,-0.000840,-0.000006,  49.607
   668.8,-0.000052,-0.000006,-0.000757,0.000029,  49.606
   669.0,-0.000032,-0.000003,-0.000654,0.000042,  49.602
   669.2,-0.000031,-0.000004,-0.000618,0.000020,  49.604
   669.4,-0.000023,-0.000018,-0.000574,0.000042,  49.601
   669.6,-0.000018,-0.000039,-0.000550,0.000042,  49.599
   669.8,-0.000016,-0.000041,-0.000535,-0.000006,  49.596
   670.0,-0.000002,-0.000036,-0.000515,-0.000023,  49.597
   670.2,0.000003,-0.000025,-0.000496,-0.000075,  49.592
   670.4,0.000006,-0.000024,-0.000470,-0.000097,  49.598
   670.6,0.000002,-0.000018,-0.000464,-0.000062,  49.596
   670.8,0.000009,-0.000010,-0.000475,-0.000036,  49.595
   671.0,0.000006,-0.000007,-0.000461,-0.000058,  49.597
   671.2,0.000002,-0.000003,-0.000425,0.000003,  49.600
   671.4,0.000011,0.000006,-0.000400,0.000003,  49.598
   671.6,0.000011,0.000004,-0.000391,-0.000019,  49.598
   671.8,0.000007,0.000003,-0.000370,0.000029,  49.595
   672.0,0.000017,0.000009,-0.000343,0.000029,  49.595
   672.2,0.000017,0.000007,-0.000760,0.000007,  49.598
   672.4,0.000013,0.000005,-0.001396,0.000042,  49.594
   672.6,0.000010,0.000008,-0.002234,0.000029,  49.596
   672.8,0.000007,0.000013,-0.002434,0.000007,  49.593
   673.0,0.000004,0.000015,-0.002432,0.000007,  49.591
   673.2,0.000001,0.000021,-0.002222,0.000007,  49.591
   673.4,0.000005,0.000023,-0.002014,-0.000016,  49.600
   673.6,0.000001,0.000022,-0.001701,-0.000029,  49.593
   673.8,0.000005,0.000021,-0.001281,0.000007,  49.596
   674.0,0.000015,0.000015,-0.001091,-0.000016,  49.588
   674.2,0.000011,0.000014,-0.000972,-0.000029,  49.587
   674.4,0.000009,0.000015,-0.000926,0.000007,  49.591
   674.6,0.000015,0.000008,-0.000793,0.000007,  49.595
   674.8,0.000010,0.000007,-0.000650,0.000007,  49.593
   675.0,0.000012,0.000008,-0.000529,-0.000006,  49.592
   675.2,0.000016,0.000008,-0.000473,0.000016,  49.592
   675.4,0.000016,0.000009,-0.000447,-0.000006,  49.591
   675.6,0.000012,0.000015,-0.000468,0.000029,  49.595
   675.8,0.000011,0.000013,-0.000524,0.000029,  49.595
   676.0,0.000000,0.000014,-0.000520,0.000007,  49.596
   676.2,-0.000025,0.000012,-0.000520,0.000042,  49.595
   676.4,-0.000048,0.000010,-0.000514,0.000029,  49.614
   676.6,-0.000066,0.000006,-0.000518,0.000007,  49.618
   676.8,-0.000077,0.000006,-0.000538,0.000029,  49.623
   677.0,-0.000089,0.000002,-0.000579,0.000016,  49.600
   677.2,-0.000095,-0.000008,-0.000553,-0.000006,  49.593
   677.4,-0.000084,-0.000014,-0.000517,0.000016,  49.590
   677.6,-0.000069,-0.000022,-0.000472,0.000016,  49.592
   677.8,-0.000068,-0.000031,-0.000460,-0.000006,  49.594
   678.0,-0.000057,-0.000045,-0.000484,0.000016,  49.593
   678.2,-0.000040,-0.000053,-0.000528,0.000016,  49.595
   678.4,-0.000039,-0.000057,-0.000528,-0.000032,  49.590
   678.6,-0.000024,-0.000052,-0.000508,-0.000036,  49.590
   678.8,-0.000018,-0.000045,-0.000490,-0.000075,  49.596
   679.0,-0.000019,-0.000044,-0.000491,-0.000110,  49.597
   679.2,-0.000014,-0.000040,-0.000508,-0.000075,  49.595
   679.4,-0.000018,-0.000033,-0.000529,-0.000049,  49.600
   679.6,-0.000013,-0.000028,-0.000570,-0.000071,  49.598
   679.8,-0.000016,-0.000017,-0.000647,-0.000023,  49.597
   680.0,-0.000007,-0.000011,-0.000760,-0.000023,  49.601
   680.2,-0.000007,-0.000012,-0.000811,-0.000045,  49.600
   680.4,-0.000002,-0.000010,-0.000852,0.000016,  49.596
   680.6,0.000005,-0.000011,-0.000892,0.000003,  49.602
   680.8,0.000007,-0.000012,-0.001067,-0.000032,  49.596
   681.0,0.000003,-0.000006,-0.001314,0.000003,  49.599
   681.2,0.000006,-0.000005,-0.001632,-0.000010,  49.602
   681.4,0.000010,-0.000006,-0.001602,-0.000045,  49.605
   681.6,0.000006,-0.000006,-0.001438,-0.000010,  49.600
   681.8,0.000006,-0.000004,-0.001146,-0.000010,  49.608
   682.0,0.000009,-0.000004,-0.001028,-0.000032,  49.602
   682.2,0.000005,-0.000004,-0.000935,0.000003,  49.605
   682.4,0.000009,0.000010,-0.000873,0.000016,  49.601
   682.6,0.000009,0.000012,-0.000796,-0.000006,  49.602
   682.8,0.000005,0.000012,-0.000719,0.000029,  49.599
   683.0,0.000009,0.000007,-0.000668,0.000029,  49.602
   683.2,0.000015,0.000009,-0.000627,0.000007,  49.602
   683.4,0.000011,0.000013,-0.000601,0.000042,  49.601
   683.6,0.000009,0.000017,-0.000580,0.000029,  49.600
   683.8,0.000015,0.000010,-0.000550,0.000029,  49.603
   684.0,0.000011,0.000014,-0.000514,-0.000006,  49.599
   684.2,0.000015,0.000018,-0.000473,0.000042,  49.599
   684.4,0.000022,0.000014,-0.000447,0.000042,  49.600
   684.6,0.000005,0.000017,-0.000443,0.000020,  49.600
   684.8,-0.000011,0.000022,-0.000437,0.000042,  49.600
   685.0,-0.000042,0.000025,-0.000452,0.000042,  49.609
   685.2,-0.000055,0.000025,-0.000426,0.000020,  49.620
   685.4,-0.000052,0.000019,-0.000396,0.000042,  49.616
   685.6,-0.000050,0.000014,-0.000355,0.000042,  49.601
   685.8,-0.000047,0.000008,-0.000411,0.000020,  49.595
   686.0,-0.000043,0.000000,-0.000506,0.000042,  49.590
   686.2,-0.000027,-0.000006,-0.000647,0.000042,  49.590
   686.4,-0.000023,-0.000012,-0.000626,0.000020,  49.590
   686.6,-0.000013,-0.000013,-0.000537,0.000042,  49.589
   686.8,-0.000010,-0.000018,-0.000407,0.000042,  49.588
   687.0,-0.000014,-0.000023,-0.000392,-0.000006,  49.586
   687.2,-0.000002,-0.000019,-0.000408,-0.000010,  49.584
   687.4,-0.000005,-0.000019,-0.000472,-0.000062,  49.587
   687.6,-0.000009,-0.000018,-0.000452,-0.000084,  49.585
   687.8,-0.000006,-0.000019,-0.000422,-0.000036,  49.591
   688.0,-0.000006,-0.000017,-0.000376,-0.000023,  49.590
   688.2,-0.000006,-0.000010,-0.000407,-0.000045,  49.590
   688.4,-0.000005,-0.000008,-0.000484,0.000016,  49.587
   688.6,0.000007,-0.000008,-0.000612,0.000003,  49.594
   688.8,0.000009,-0.000008,-0.000817,0.000003,  49.588
   689.0,0.000005,-0.000004,-0.001090,0.000003,  49.588
   689.2,0.000013,-0.000001,-0.001451,0.000026,  49.587
   689.4,0.000012,-0.000005,-0.001468,0.000003,  49.587
   689.6,0.000015,-0.000006,-0.001334,0.000003,  49.589
   689.8,0.000011,-0.000009,-0.001082,0.000016,  49.582
   690.0,0.000005,-0.000011,-0.001103,-0.000019,  49.581
   690.2,0.000001,-0.000003,-0.001195,0.000016,  49.581
   690.4,0.000001,0.000006,-0.001374,0.000003,  49.582
   690.6,0.000005,0.000003,-0.001283,-0.000019,  49.584
   690.8,-0.000002,0.000012,-0.001093,0.000029,  49.583
   691.0,-0.000006,0.000014,-0.000816,0.000029,  49.576
   691.2,-0.000006,0.000013,-0.000713,0.000042,  49.583
   691.4,-0.000015,0.000017,-0.000678,0.000029,  49.581
   691.6,-0.000015,0.000012,-0.000689,0.000052,  49.578
   691.8,-0.000011,0.000010,-0.000864,0.000065,  49.582
   692.0,-0.000020,0.000008,-0.001167,0.000016,  49.579
   692.2,-0.000016,0.000001,-0.001581,0.000052,  49.581
   692.4,-0.000013,0.000003,-0.001576,0.000029,  49.573
   692.6,-0.000016,-0.000001,-0.001423,0.000016,  49.572
   692.8,-0.000013,-0.000003,-0.001126,0.000016,  49.577
   693.0,-0.000015,-0.000005,-0.001002,0.000016,  49.575
   693.2,-0.000035,-0.000004,-0.000912,-0.000006,  49.582
   693.4,-0.000049,-0.000002,-0.000818,0.000029,  49.586
   693.6,-0.000072,-0.000005,-0.000763,0.000029,  49.592
   693.8,-0.000086,-0.000001,-0.000726,0.000007,  49.601
   694.0,-0.000094,0.000000,-0.000737,0.000042,  49.589
   694.2,-0.000090,-0.000008,-0.000757,0.000029,  49.577
   694.4,-0.000094,-0.000016,-0.000736,0.000007,  49.573
   694.6,-0.000089,-0.000035,-0.000725,0.000029,  49.570
   694.8,-0.000075,-0.000042,-0.000714,0.000016,  49.565
   695.0,-0.000073,-0.000054,-0.000687,-0.000019,  49.564
   695.2,-0.000059,-0.000064,-0.000665,0.000016,  49.569
   695.4,-0.000042,-0.000068,-0.000642,0.000003,  49.567
   695.6,-0.000040,-0.000070,-0.000653,-0.000058,  49.569
   695.8,-0.000038,-0.000070,-0.000684,-0.000049,  49.569
   696.0,-0.000044,-0.000064,-0.000722,-0.000114,  49.569
   696.2,-0.000045,-0.000062,-0.000714,-0.000149,  49.567
   696.4,-0.000036,-0.000052,-0.000675,-0.000136,  49.572
   696.6,-0.000030,-0.000042,-0.000610,-0.000110,  49.569
   696.8,-0.000034,-0.000043,-0.000627,-0.000120,  49.574
   697.0,-0.000027,-0.000035,-0.000678,-0.000107,  49.573
   697.2,-0.000023,-0.000031,-0.000753,-0.000058,  49.575
   697.4,-0.000021,-0.000033,-0.000759,-0.000081,  49.575
   697.6,-0.000018,-0.000031,-0.000734,-0.000055,  49.577
   697.8,-0.000015,-0.000030,-0.000693,-0.000032,  49.578
   698.0,-0.000013,-0.000030,-0.000673,-0.000068,  49.579
   698.2,-0.000013,-0.000031,-0.000654,-0.000068,  49.585
   698.4,-0.000010,-0.000033,-0.000618,-0.000045,  49.577
   698.6,-0.000013,-0.000033,-0.000689,-0.000081,  49.582
   698.8,-0.000019,-0.000031,-0.000821,-0.000068,  49.581
   699.0,-0.000013,-0.000025,-0.001004,-0.000032,  49.585
   699.2,-0.000013,-0.000028,-0.001010,-0.000068,  49.581
   699.4,-0.000014,-0.000027,-0.000960,-0.000032,  49.584
   699.6,-0.000003,-0.000021,-0.000827,-0.000010,  49.587
   699.8,0.000006,-0.000019,-0.000812,-0.000032,  49.586
   700.0,0.000002,-0.000023,-0.000827,0.000003,  49.588
   700.2,0.000004,-0.000025,-0.000862,0.000016,  49.589
   700.4,0.000000,-0.000022,-0.000862,-0.000006,  49.589
   700.6,-0.000005,-0.000019,-0.000883,0.000016,  49.591
   700.8,-0.000006,-0.000017,-0.000877,0.000016,  49.596
   701.0,-0.000006,-0.000019,-0.000832,-0.000006,  49.594
   701.2,-0.000010,-0.000018,-0.000761,0.000029,  49.594
   701.4,-0.000007,-0.000013,-0.000675,0.000029,  49.592
   701.6,-0.000001,-0.000012,-0.000634,0.000029,  49.591
   701.8,-0.000018,-0.000006,-0.000604,0.000007,  49.601
   702.0,-0.000039,-0.000002,-0.000593,0.000042,  49.604
   702.2,-0.000061,-0.000002,-0.000592,0.000029,  49.608
   702.4,-0.000073,-0.000002,-0.000637,0.000007,  49.621
   702.6,-0.000076,-0.000002,-0.000713,0.000042,  49.604
   702.8,-0.000067,-0.000006,-0.000835,0.000029,  49.591
   703.0,-0.000065,-0.000016,-0.000794,0.000007,  49.588
   703.2,-0.000052,-0.000031,-0.000698,0.000042,  49.590
   703.4,-0.000027,-0.000035,-0.000523,0.000029,  49.582
   703.6,-0.000023,-0.000041,-0.000450,0.000007,  49.582
   703.8,-0.000020,-0.000050,-0.000381,0.000042,  49.582
   704.0,-0.000009,-0.000050,-0.000337,0.000029,  49.585
   704.2,-0.000013,-0.000051,-0.000363,-0.000019,  49.577
   704.4,-0.000013,-0.000043,-0.000435,-0.000036,  49.583
   704.6,-0.000011,-0.000033,-0.000533,-0.000101,  49.579
   704.8,-0.000018,-0.000030,-0.000524,-0.000136,  49.580
   705.0,-0.000015,-0.000024,-0.000473,-0.000088,  49.584
   705.2,-0.000011,-0.000018,-0.000402,-0.000062,  49.576
   705.4,-0.000015,-0.000014,-0.000568,-0.000036,  49.578
   705.6,-0.000015,-0.000020,-0.000818,-0.000036,  49.578
   705.8,-0.000009,-0.000018,-0.001188,0.000000,  49.576
   706.0,-0.000006,-0.000016,-0.001204,0.000013,  49.576
   706.2,-0.000003,-0.000020,-0.001091,-0.000010,  49.579
   706.4,-0.000010,-0.000012,-0.000850,0.000013,  49.579
   706.6,-0.000003,-0.000008,-0.000799,0.000013,  49.578
   706.8,-0.000003,-0.000010,-0.000794,-0.000010,  49.582
   707.0,-0.000003,-0.000004,-0.000814,0.000026,  49.577
   707.2,-0.000009,-0.000004,-0.001132,0.000003,  49.579
   707.4,-0.000010,0.000000,-0.001620,-0.000032,  49.575
   707.6,-0.000007,-0.000002,-0.002296,-0.000019,  49.579
   707.8,0.000005,-0.000008,-0.002347,-0.000042,  49.582
   708.0,0.000001,-0.000006,-0.002156,-0.000042,  49.579
   708.2,0.000012,-0.000003,-0.001750,-0.000006,  49.581
   708.4,0.000019,-0.000006,-0.001576,-0.000029,  49.581
   708.6,0.000012,-0.000006,-0.001403,-0.000029,  49.583
   708.8,0.000022,-0.000000,-0.001213,-0.000006,  49.582
   709.0,0.000019,-0.000001,-0.001070,-0.000029,  49.588
   709.2,0.000012,0.000001,-0.000953,-0.000029,  49.587
   709.4,0.000019,0.000006,-0.000850,-0.000006,  49.585
   709.6,0.000014,0.000003,-0.000763,-0.000029,  49.590
   709.8,0.000010,0.000006,-0.000711,-0.000029,  49.585
   710.0,0.000012,0.000008,-0.000675,0.000007,  49.591
   710.2,0.000015,0.000003,-0.000649,0.000007,  49.593
   710.4,-0.000001,0.000005,-0.000622,0.000007,  49.593
   710.6,-0.000023,0.000002,-0.000627,0.000007,  49.606
   710.8,-0.000047,0.000003,-0.000606,0.000029,  49.606
   711.0,-0.000053,0.000004,-0.000565,0.000007,  49.614
   711.2,-0.000056,0.000012,-0.000550,0.000042,  49.603
   711.4,-0.000043,0.000006,-0.000509,0.000029,  49.595
   711.6,-0.000039,0.000001,-0.000458,0.000042,  49.598
   711.8,-0.000032,-0.000010,-0.000396,0.000042,  49.595
   712.0,-0.000017,-0.000018,-0.000334,0.000065,  49.593
   712.2,-0.000010,-0.000028,-0.000292,0.000029,  49.593
   712.4,0.000003,-0.000039,-0.000259,0.000029,  49.599
   712.6,0.000018,-0.000037,-0.000251,0.000003,  49.593
   712.8,0.000017,-0.000033,-0.000251,-0.000058,  49.598
   713.0,0.000026,-0.000025,-0.000277,-0.000049,  49.594
   713.2,0.000032,-0.000008,-0.000303,-0.000114,  49.593
   713.4,0.000032,-0.000007,-0.000328,-0.000149,  49.598
   713.6,0.000032,0.000005,-0.000364,-0.000088,  49.599
   713.8,0.000036,0.000019,-0.000405,-0.000049,  49.593
   714.0,0.000035,0.000031,-0.000390,-0.000071,  49.597
   714.2,0.000034,0.000033,-0.000364,-0.000010,  49.598
   714.4,0.000036,0.000033,-0.000303,0.000003,  49.597
   714.6,0.000035,0.000036,-0.000287,-0.000006,  49.599
   714.8,0.000041,0.000030,-0.000266,0.000042,  49.597
   715.0,0.000045,0.000032,-0.000271,0.000029,  49.602
   715.2,0.000045,0.000029,-0.000286,0.000007,  49.603
   715.4,0.000045,0.000029,-0.000312,0.000042,  49.603
   715.6,0.000043,0.000034,-0.000353,0.000029,  49.604
   715.8,0.000040,0.000034,-0.000322,0.000007,  49.602
   716.0,0.000043,0.000037,-0.000266,0.000042,  49.604
   716.2,0.000043,0.000038,-0.000174,0.000029,  49.599
   716.4,0.000045,0.000038,-0.000195,0.000007,  49.603
   716.6,0.000039,0.000033,-0.000256,0.000042,  49.605
   716.8,0.000036,0.000028,-0.000346,0.000042,  49.610
   717.0,0.000027,0.000026,-0.000372,0.000020,  49.609
   717.2,0.000018,0.000032,-0.000392,0.000042,  49.613
   717.4,0.000022,0.000033,-0.000396,0.000042,  49.615
   717.6,0.000017,0.000033,-0.000381,0.000020,  49.614
   717.8,0.000010,0.000034,-0.000357,0.000042,  49.614
   718.0,0.000014,0.000030,-0.000307,0.000042,  49.612
   718.2,0.000020,0.000026,-0.000281,0.000020,  49.614
   718.4,0.000014,0.000025,-0.000262,0.000042,  49.621
   718.6,0.000009,0.000021,-0.000236,0.000042,  49.614
   718.8,0.000010,0.000019,-0.000272,0.000020,  49.619
   719.0,-0.000015,0.000015,-0.000334,0.000042,  49.626
   719.2,-0.000042,0.000019,-0.000425,0.000042,  49.629
   719.4,-0.000072,0.000017,-0.000440,0.000042,  49.637
   719.6,-0.000086,0.000011,-0.000451,0.000007,  49.642
   719.8,-0.000086,0.000011,-0.000451,0.000042,  49.627
