Run Name,Group 5 35%b
Run Date,05:32:46 PM   02-08-11
Method Name,35%B-Isocrat
Export Format Version, 1.00
Method ID, 1171
Points/Second, 1.00
Number of Records,   1784
Offset from Run Start Time,00:00:00
Run End Time,00:29:47
Time,Second
QuadTec 1, (280.0 nm), AU
QuadTec 2, (260.0 nm), AU
Gradient Pump,<Not Selected>
QuadTec 3, (214.0 nm), AU
QuadTec 4, (405.0 nm), AU
Conductivity,mS/cm
Trace 6,<Not Available>
GP Pressure,<Not Selected>
Volume,<Not Selected>
Fraction,<Not Available>
Time,QuadTec 1,QuadTec 2,QuadTec 3,QuadTec 4,Conductivity
     0.0,0.001044,0.000889,0.006978,0.000000,  34.485
     1.0,0.001047,0.000880,0.000000,0.000000,  34.459
     2.0,0.001052,0.000881,0.000000,0.000000,  34.457
     3.0,0.001054,0.000887,0.000000,0.000000,  34.451
     4.0,0.001054,0.000889,0.000000,0.000000,  34.450
     5.0,0.001090,0.000889,-0.000242,0.000005,  34.450
     6.0,0.000000,0.000000,-0.000433,-0.000040,  34.450
     7.0,0.000000,0.000000,-0.000598,-0.000017,  34.443
     8.0,0.000000,0.000000,-0.000551,-0.000013,  34.439
     9.0,0.000000,0.000000,-0.000695,0.000001,  34.435
    10.0,0.000134,0.000178,-0.000811,0.000001,  34.427
    11.0,0.000139,0.000168,-0.000893,-0.000057,  34.412
    12.0,0.000147,0.000163,-0.000961,-0.000021,  34.403
    13.0,0.000142,0.000177,-0.000917,-0.000021,  34.400
    14.0,0.000153,0.000185,-0.001019,-0.000057,  34.400
    15.0,0.000162,0.000194,-0.001070,-0.000021,  34.397
    16.0,0.000163,0.000203,-0.001070,-0.000044,  34.393
    17.0,0.000170,0.000214,-0.002539,-0.000044,  34.398
    18.0,0.000170,0.000216,-0.001573,-0.000039,  34.400
    19.0,0.000178,0.000213,-0.001451,-0.000017,  34.401
    20.0,0.000190,0.000223,-0.002461,-0.000003,  34.407
    21.0,0.000200,0.000235,-0.001866,-0.000003,  34.406
    22.0,0.000214,0.000250,-0.001381,-0.000039,  34.412
    23.0,0.000210,0.000255,-0.001170,-0.000074,  34.415
    24.0,0.000218,0.000259,-0.001118,-0.000039,  34.426
    25.0,0.000221,0.000260,-0.001028,-0.000074,  34.433
    26.0,0.000223,0.000265,-0.000963,-0.000097,  34.439
    27.0,0.000234,0.000273,-0.001261,-0.000039,  34.463
    28.0,0.000232,0.000278,-0.001276,-0.000061,  34.470
    29.0,0.000235,0.000292,-0.001165,-0.000025,  34.476
    30.0,0.000235,0.000271,-0.001082,-0.000061,  34.485
    31.0,0.000237,0.000274,-0.001427,-0.000110,  34.497
    32.0,0.000239,0.000273,-0.002004,-0.000074,  34.507
    33.0,0.000241,0.000273,-0.001828,-0.000074,  34.514
    34.0,0.000235,0.000269,-0.001355,-0.000074,  34.529
    35.0,0.000235,0.000265,-0.001342,-0.000039,  34.532
    36.0,0.000232,0.000268,-0.001202,-0.000074,  34.532
    37.0,0.000229,0.000265,-0.001304,-0.000088,  34.541
    38.0,0.000239,0.000273,-0.001255,-0.000039,  34.544
    39.0,0.000239,0.000272,-0.001362,-0.000061,  34.552
    40.0,0.000220,0.000262,-0.001244,-0.000061,  34.551
    41.0,0.000215,0.000253,-0.001284,-0.000074,  34.559
    42.0,0.000217,0.000251,-0.001378,-0.000088,  34.555
    43.0,0.000218,0.000255,-0.002439,-0.000025,  34.562
    44.0,0.000221,0.000262,-0.002690,-0.000048,  34.570
    45.0,0.000223,0.000262,-0.001663,-0.000048,  34.568
    46.0,0.000235,0.000270,-0.001266,-0.000061,  34.576
    47.0,0.000221,0.000265,-0.001822,-0.000048,  34.581
    48.0,0.000226,0.000263,-0.001573,-0.000061,  34.589
    49.0,0.000229,0.000272,-0.001250,-0.000061,  34.591
    50.0,0.000234,0.000278,-0.001149,-0.000097,  34.594
    51.0,0.000236,0.000282,-0.001262,-0.000061,  34.591
    52.0,0.000239,0.000284,-0.001181,-0.000061,  34.595
    53.0,0.000241,0.000288,-0.001254,-0.000110,  34.593
    54.0,0.000236,0.000285,-0.001184,-0.000074,  34.618
    55.0,0.000236,0.000286,-0.000621,0.000128,  34.633
    56.0,0.000230,0.000281,0.000032,0.000209,  34.579
    57.0,0.000231,0.000273,0.000512,0.000155,  34.563
    58.0,0.000230,0.000272,-0.001191,-0.000110,  34.565
    59.0,0.000235,0.000270,-0.001213,-0.000088,  34.555
    60.0,0.000340,0.000399,-0.001261,-0.000074,  34.546
    61.0,0.000562,0.000638,-0.001171,-0.000038,  34.548
    62.0,0.000358,0.000624,-0.001106,0.000020,  34.539
    63.0,0.000133,0.000226,-0.001072,-0.000007,  34.544
    64.0,0.000142,0.000199,-0.001183,-0.000034,  34.543
    65.0,0.000171,0.000216,-0.001204,-0.000012,  34.548
    66.0,0.000297,0.000325,-0.001280,-0.000048,  34.547
    67.0,0.000325,0.000358,-0.001636,-0.000048,  34.551
    68.0,0.000303,0.000365,-0.001466,-0.000048,  34.559
    69.0,0.000273,0.000336,-0.001431,-0.000097,  34.566
    70.0,0.000260,0.000325,-0.001396,-0.000061,  34.577
    71.0,0.000245,0.000311,-0.001387,-0.000048,  34.587
    72.0,0.000245,0.000301,-0.001271,-0.000070,  34.594
    73.0,0.000269,0.000312,-0.001284,-0.000048,  34.594
    74.0,0.000261,0.000303,-0.001187,-0.000061,  34.600
    75.0,0.000247,0.000296,-0.001181,-0.000061,  34.604
    76.0,0.000246,0.000283,-0.001261,-0.000048,  34.613
    77.0,0.000245,0.000289,-0.001798,-0.000070,  34.618
    78.0,0.000247,0.000299,-0.001483,-0.000048,  34.637
    79.0,0.000247,0.000294,-0.001373,-0.000048,  34.643
    80.0,0.000246,0.000300,-0.001171,-0.000097,  34.649
    81.0,0.000249,0.000301,-0.001203,-0.000048,  34.651
    82.0,0.000247,0.000302,-0.001249,-0.000061,  34.655
    83.0,0.000241,0.000296,-0.001204,-0.000034,  34.656
    84.0,0.000252,0.000298,-0.001163,-0.000048,  34.664
    85.0,0.000247,0.000293,-0.001368,-0.000083,  34.664
    86.0,0.000241,0.000289,-0.001356,-0.000048,  34.667
    87.0,0.000247,0.000285,-0.001224,-0.000048,  34.665
    88.0,0.000249,0.000285,-0.001246,-0.000083,  34.664
    89.0,0.000241,0.000275,-0.001659,-0.000048,  34.665
    90.0,0.000230,0.000285,-0.001221,-0.000048,  34.668
    91.0,0.000233,0.000285,-0.001174,-0.000070,  34.672
    92.0,0.000241,0.000290,-0.000986,-0.000034,  34.669
    93.0,0.000245,0.000301,-0.000924,-0.000056,  34.670
    94.0,0.000256,0.000304,-0.000613,-0.000034,  34.667
    95.0,0.000265,0.000312,-0.000221,-0.000021,  34.662
    96.0,0.000272,0.000318,0.000336,-0.000043,  34.659
    97.0,0.000280,0.000314,0.001278,-0.000007,  34.657
    98.0,0.000301,0.000333,0.002259,0.000006,  34.655
    99.0,0.000321,0.000350,0.003456,-0.000029,  34.655
   100.0,0.000381,0.000389,0.005161,0.000006,  34.653
   101.0,0.000458,0.000436,0.007219,0.000006,  34.653
   102.0,0.000521,0.000486,0.009612,0.000006,  34.653
   103.0,0.000612,0.000534,0.011762,0.000006,  34.644
   104.0,0.000722,0.000585,0.015108,-0.000029,  34.650
   105.0,0.000840,0.000653,0.019295,0.000006,  34.641
   106.0,0.001004,0.000739,0.023840,0.000006,  34.643
   107.0,0.001208,0.000843,0.029222,-0.000029,  34.641
   108.0,0.001476,0.000972,0.035285,0.000006,  34.645
   109.0,0.001793,0.001142,0.041350,0.000033,  34.647
   110.0,0.002187,0.001317,0.049796,0.000020,  34.657
   111.0,0.002639,0.001551,0.058289,0.000033,  34.657
   112.0,0.003155,0.001818,0.067182,-0.000002,  34.660
   113.0,0.003753,0.002153,0.078077,0.000047,  34.656
   114.0,0.004334,0.002525,0.089422,0.000047,  34.656
   115.0,0.005136,0.002952,0.102092,0.000011,  34.654
   116.0,0.006072,0.003461,0.115067,0.000074,  34.649
   117.0,0.007131,0.004052,0.131346,0.000074,  34.653
   118.0,0.008275,0.004688,0.147516,0.000065,  34.647
   119.0,0.009479,0.005255,0.164742,0.000114,  34.652
   120.0,0.010841,0.005924,0.179335,0.000079,  34.651
   121.0,0.012353,0.006742,0.197601,0.000114,  34.654
   122.0,0.013773,0.007626,0.216891,0.000114,  34.657
   123.0,0.015361,0.008577,0.237510,0.000092,  34.662
   124.0,0.017212,0.009598,0.258866,0.000141,  34.662
   125.0,0.019153,0.010666,0.279899,0.000141,  34.673
   126.0,0.021141,0.011788,0.300399,0.000106,  34.668
   127.0,0.023251,0.012794,0.322213,0.000141,  34.677
   128.0,0.025471,0.013919,0.339785,0.000106,  34.684
   129.0,0.027791,0.015194,0.361493,0.000141,  34.684
   130.0,0.030037,0.016454,0.381903,0.000141,  34.681
   131.0,0.031790,0.017686,0.403692,0.000106,  34.682
   132.0,0.034129,0.018973,0.424139,0.000141,  34.677
   133.0,0.036481,0.020278,0.443888,0.000114,  34.666
   134.0,0.038806,0.021572,0.464021,0.000092,  34.661
   135.0,0.041085,0.022673,0.483849,0.000128,  34.653
   136.0,0.043390,0.023862,0.502885,0.000092,  34.648
   137.0,0.045641,0.025133,0.518417,0.000101,  34.638
   138.0,0.047717,0.026312,0.533940,0.000087,  34.625
   139.0,0.049355,0.027459,0.550339,0.000052,  34.616
   140.0,0.051454,0.028616,0.566058,0.000074,  34.592
   141.0,0.053459,0.029744,0.580404,0.000074,  34.574
   142.0,0.055253,0.030757,0.592077,-0.000002,  34.559
   143.0,0.056963,0.031713,0.606702,-0.000007,  34.538
   144.0,0.058631,0.032641,0.620663,0.000006,  34.511
   145.0,0.060183,0.033342,0.631458,-0.000021,  34.489
   146.0,0.061666,0.034187,0.642232,-0.000034,  34.452
   147.0,0.063024,0.034950,0.652455,-0.000083,  34.424
   148.0,0.064307,0.035686,0.664440,-0.000048,  34.393
   149.0,0.065295,0.036382,0.674656,-0.000048,  34.349
   150.0,0.066424,0.037016,0.684422,-0.000070,  34.314
   151.0,0.067410,0.037548,0.694888,-0.000021,  34.260
   152.0,0.068411,0.038117,0.705138,-0.000007,  34.198
   153.0,0.069487,0.038721,0.715431,0.000006,  34.137
   154.0,0.070268,0.039094,0.725047,0.000060,  34.064
   155.0,0.071109,0.039564,0.735312,0.000038,  33.986
   156.0,0.072009,0.040073,0.745950,0.000141,  33.903
   157.0,0.072697,0.040573,0.757987,0.000222,  33.803
   158.0,0.073543,0.041043,0.768887,0.000281,  33.713
   159.0,0.074399,0.041539,0.780510,0.000371,  33.612
   160.0,0.075364,0.042080,0.793371,0.000438,  33.504
   161.0,0.076211,0.042584,0.804191,0.000470,  33.401
   162.0,0.077094,0.043026,0.813643,0.000546,  33.309
   163.0,0.077840,0.043421,0.823453,0.000538,  33.233
   164.0,0.078575,0.043843,0.833958,0.000573,  33.169
   165.0,0.079236,0.044270,0.842845,0.000542,  33.124
   166.0,0.079753,0.044595,0.850035,0.000542,  33.097
   167.0,0.080135,0.044802,0.857994,0.000578,  33.091
   168.0,0.080569,0.045017,0.864164,0.000542,  33.121
   169.0,0.080849,0.045177,0.868449,0.000538,  33.152
   170.0,0.080892,0.045205,0.871628,0.000546,  33.214
   171.0,0.080758,0.045114,0.871808,0.000524,  33.298
   172.0,0.080687,0.045050,0.875797,0.000533,  33.382
   173.0,0.080398,0.044896,0.876438,0.000519,  33.483
   174.0,0.080035,0.044628,0.876141,0.000443,  33.589
   175.0,0.079471,0.044283,0.876290,0.000465,  33.690
   176.0,0.078908,0.043932,0.875593,0.000438,  33.788
   177.0,0.078253,0.043546,0.874106,0.000389,  33.886
   178.0,0.077433,0.043068,0.871000,0.000398,  33.986
   179.0,0.076568,0.042553,0.868964,0.000313,  34.077
   180.0,0.075796,0.042181,0.866450,0.000335,  34.161
   181.0,0.074971,0.041705,0.863950,0.000286,  34.233
   182.0,0.074059,0.041191,0.859155,0.000272,  34.297
   183.0,0.073243,0.040609,0.856157,0.000295,  34.354
   184.0,0.072289,0.040044,0.852552,0.000272,  34.401
   185.0,0.071401,0.039530,0.846858,0.000272,  34.435
   186.0,0.070459,0.038980,0.842256,0.000281,  34.476
   187.0,0.069393,0.038365,0.838814,0.000245,  34.502
   188.0,0.068514,0.037872,0.830899,0.000281,  34.527
   189.0,0.067645,0.037442,0.827964,0.000245,  34.538
   190.0,0.066553,0.036858,0.823382,0.000259,  34.555
   191.0,0.065589,0.036275,0.819985,0.000295,  34.578
   192.0,0.064915,0.035788,0.814777,0.000259,  34.590
   193.0,0.064023,0.035300,0.809813,0.000245,  34.595
   194.0,0.063089,0.034769,0.803906,0.000303,  34.614
   195.0,0.062178,0.034254,0.798392,0.000317,  34.621
   196.0,0.061316,0.033769,0.792985,0.000276,  34.635
   197.0,0.060411,0.033338,0.786092,0.000276,  34.639
   198.0,0.059549,0.032870,0.779249,0.000241,  34.647
   199.0,0.058661,0.032371,0.774278,0.000276,  34.653
   200.0,0.057805,0.031898,0.767878,0.000290,  34.652
   201.0,0.057175,0.031442,0.761286,0.000218,  34.657
   202.0,0.056317,0.030979,0.755167,0.000254,  34.655
   203.0,0.055423,0.030480,0.748562,0.000218,  34.657
   204.0,0.054650,0.030050,0.742892,0.000218,  34.665
   205.0,0.053940,0.029657,0.735541,0.000254,  34.667
   206.0,0.053164,0.029261,0.728592,0.000276,  34.671
   207.0,0.052343,0.028882,0.722350,0.000276,  34.672
   208.0,0.051645,0.028480,0.715586,0.000263,  34.668
   209.0,0.050975,0.028083,0.708235,0.000200,  34.668
   210.0,0.050282,0.027661,0.699650,0.000263,  34.670
   211.0,0.049533,0.027263,0.692565,0.000263,  34.671
   212.0,0.048860,0.026888,0.685618,0.000191,  34.678
   213.0,0.048163,0.026514,0.678180,0.000249,  34.682
   214.0,0.047492,0.026151,0.668779,0.000249,  34.695
   215.0,0.046750,0.025838,0.662161,0.000249,  34.698
   216.0,0.046099,0.025481,0.655472,0.000249,  34.698
   217.0,0.045512,0.025147,0.648668,0.000214,  34.700
   218.0,0.045000,0.024829,0.639963,0.000236,  34.706
   219.0,0.044351,0.024488,0.632219,0.000222,  34.712
   220.0,0.043720,0.024138,0.623700,0.000200,  34.709
   221.0,0.043159,0.023836,0.616285,0.000236,  34.711
   222.0,0.042544,0.023522,0.607595,0.000249,  34.719
   223.0,0.041896,0.023194,0.600079,0.000236,  34.716
   224.0,0.041368,0.022951,0.593264,0.000236,  34.720
   225.0,0.040858,0.022678,0.586352,0.000214,  34.716
   226.0,0.040294,0.022430,0.577843,0.000236,  34.719
   227.0,0.039794,0.022123,0.570118,0.000249,  34.722
   228.0,0.039313,0.021855,0.562359,0.000214,  34.723
   229.0,0.038842,0.021617,0.554992,0.000222,  34.722
   230.0,0.038318,0.021346,0.547040,0.000222,  34.728
   231.0,0.037828,0.021101,0.538921,0.000187,  34.735
   232.0,0.037361,0.020884,0.531694,0.000209,  34.735
   233.0,0.036915,0.020677,0.524748,0.000187,  34.737
   234.0,0.036457,0.020449,0.517760,0.000195,  34.734
   235.0,0.036045,0.020212,0.510072,0.000195,  34.734
   236.0,0.035648,0.019985,0.503283,0.000173,  34.736
   237.0,0.035251,0.019784,0.495992,0.000173,  34.737
   238.0,0.034876,0.019604,0.488068,0.000151,  34.733
   239.0,0.034432,0.019390,0.481352,0.000151,  34.734
   240.0,0.034042,0.019202,0.474200,0.000173,  34.736
   241.0,0.033713,0.019043,0.466776,0.000160,  34.738
   242.0,0.033348,0.018905,0.460444,0.000146,  34.741
   243.0,0.032969,0.018721,0.455312,0.000124,  34.743
   244.0,0.032650,0.018554,0.448401,0.000133,  34.745
   245.0,0.032422,0.018431,0.441389,0.000182,  34.754
   246.0,0.032097,0.018286,0.435308,0.000195,  34.758
   247.0,0.031802,0.018143,0.429252,0.000146,  34.750
   248.0,0.031503,0.018002,0.422518,0.000182,  34.752
   249.0,0.031240,0.017886,0.417369,0.000168,  34.742
   250.0,0.031007,0.017813,0.411450,0.000168,  34.741
   251.0,0.030708,0.017684,0.405729,0.000168,  34.739
   252.0,0.030453,0.017577,0.401312,0.000133,  34.734
   253.0,0.030238,0.017463,0.395041,0.000168,  34.729
   254.0,0.030066,0.017376,0.389866,0.000168,  34.723
   255.0,0.029840,0.017278,0.384515,0.000133,  34.722
   256.0,0.029602,0.017174,0.379800,0.000195,  34.726
   257.0,0.029436,0.017111,0.374961,0.000195,  34.732
   258.0,0.029274,0.017048,0.369295,0.000173,  34.727
   259.0,0.029094,0.016988,0.364491,0.000124,  34.725
   260.0,0.028923,0.016909,0.360522,0.000110,  34.728
   261.0,0.028799,0.016872,0.356766,0.000146,  34.722
   262.0,0.028691,0.016845,0.352337,0.000124,  34.724
   263.0,0.028537,0.016788,0.347835,0.000110,  34.724
   264.0,0.028391,0.016730,0.343796,0.000133,  34.723
   265.0,0.028286,0.016692,0.339854,0.000110,  34.720
   266.0,0.028182,0.016656,0.335996,0.000097,  34.724
   267.0,0.028089,0.016637,0.331745,0.000133,  34.717
   268.0,0.027982,0.016608,0.328504,0.000097,  34.726
   269.0,0.027917,0.016591,0.325572,0.000155,  34.726
   270.0,0.027857,0.016594,0.322110,0.000168,  34.729
   271.0,0.027810,0.016587,0.317301,0.000119,  34.732
   272.0,0.027741,0.016583,0.314491,0.000155,  34.737
   273.0,0.027708,0.016576,0.312219,0.000155,  34.739
   274.0,0.027680,0.016593,0.309397,0.000119,  34.737
   275.0,0.027625,0.016598,0.306277,0.000155,  34.738
   276.0,0.027559,0.016580,0.303819,0.000133,  34.741
   277.0,0.027546,0.016585,0.300857,0.000155,  34.734
   278.0,0.027559,0.016614,0.299048,0.000097,  34.739
   279.0,0.027538,0.016636,0.296435,0.000097,  34.742
   280.0,0.027527,0.016659,0.293612,0.000119,  34.740
   281.0,0.027532,0.016684,0.291427,0.000097,  34.741
   282.0,0.027554,0.016724,0.288912,0.000097,  34.741
   283.0,0.027562,0.016746,0.286882,0.000168,  34.735
   284.0,0.027534,0.016774,0.285064,0.000168,  34.738
   285.0,0.027584,0.016809,0.283539,0.000168,  34.736
   286.0,0.027625,0.016841,0.281870,0.000168,  34.739
   287.0,0.027633,0.016894,0.280048,0.000133,  34.734
   288.0,0.027645,0.016908,0.278501,0.000168,  34.731
   289.0,0.027669,0.016937,0.276915,0.000168,  34.731
   290.0,0.027733,0.017005,0.275194,0.000133,  34.730
   291.0,0.027785,0.017059,0.273563,0.000168,  34.739
   292.0,0.027818,0.017106,0.272552,0.000168,  34.739
   293.0,0.027878,0.017147,0.271252,0.000133,  34.745
   294.0,0.027950,0.017207,0.269706,0.000168,  34.749
   295.0,0.027996,0.017252,0.268263,0.000133,  34.752
   296.0,0.028029,0.017291,0.267465,0.000168,  34.765
   297.0,0.028095,0.017356,0.266237,0.000168,  34.770
   298.0,0.028175,0.017417,0.264946,0.000119,  34.773
   299.0,0.028222,0.017471,0.264185,0.000155,  34.771
   300.0,0.028252,0.017501,0.263305,0.000168,  34.770
   301.0,0.028313,0.017553,0.262563,0.000128,  34.774
   302.0,0.028384,0.017608,0.261643,0.000155,  34.767
   303.0,0.028454,0.017654,0.260433,0.000133,  34.766
   304.0,0.028517,0.017715,0.259872,0.000119,  34.762
   305.0,0.028585,0.017761,0.259291,0.000097,  34.764
   306.0,0.028663,0.017821,0.258608,0.000083,  34.767
   307.0,0.028720,0.017877,0.257378,0.000119,  34.770
   308.0,0.028773,0.017925,0.256481,0.000083,  34.771
   309.0,0.028833,0.017970,0.254781,0.000070,  34.770
   310.0,0.028911,0.018040,0.255059,0.000128,  34.769
   311.0,0.028996,0.018101,0.255103,0.000128,  34.764
   312.0,0.029015,0.018124,0.254418,0.000128,  34.763
   313.0,0.029090,0.018171,0.254346,0.000128,  34.765
   314.0,0.029172,0.018228,0.253797,0.000119,  34.758
   315.0,0.029209,0.018265,0.253265,0.000141,  34.756
   316.0,0.029263,0.018309,0.252570,0.000106,  34.758
   317.0,0.029324,0.018363,0.252172,0.000056,  34.767
   318.0,0.029413,0.018427,0.251727,0.000128,  34.766
   319.0,0.029457,0.018457,0.250689,0.000128,  34.766
   320.0,0.029492,0.018500,0.248041,0.000128,  34.769
   321.0,0.029550,0.018523,0.249130,0.000128,  34.769
   322.0,0.029592,0.018559,0.249043,0.000092,  34.773
   323.0,0.029636,0.018607,0.248931,0.000128,  34.772
   324.0,0.029656,0.018622,0.248540,0.000128,  34.776
   325.0,0.029680,0.018636,0.248495,0.000056,  34.777
   326.0,0.029755,0.018689,0.247278,0.000092,  34.778
   327.0,0.029788,0.018724,0.247237,0.000092,  34.775
   328.0,0.029806,0.018748,0.246797,0.000092,  34.770
   329.0,0.029847,0.018759,0.246602,0.000141,  34.763
   330.0,0.029902,0.018793,0.246168,0.000119,  34.764
   331.0,0.029923,0.018823,0.245674,0.000155,  34.758
   332.0,0.029932,0.018833,0.244951,0.000168,  34.749
   333.0,0.029965,0.018862,0.244671,0.000106,  34.748
   334.0,0.029994,0.018883,0.244633,0.000155,  34.745
   335.0,0.030008,0.018891,0.244077,0.000168,  34.748
   336.0,0.029995,0.018890,0.243562,0.000119,  34.742
   337.0,0.030018,0.018910,0.243168,0.000119,  34.741
   338.0,0.030039,0.018930,0.241871,0.000133,  34.737
   339.0,0.030055,0.018958,0.241867,0.000119,  34.738
   340.0,0.030055,0.018960,0.241372,0.000056,  34.736
   341.0,0.030035,0.018951,0.241150,0.000056,  34.732
   342.0,0.030035,0.018954,0.240477,0.000101,  34.737
   343.0,0.030040,0.018962,0.239012,0.000128,  34.737
   344.0,0.030027,0.018942,0.238121,0.000092,  34.735
   345.0,0.029981,0.018912,0.238451,0.000128,  34.738
   346.0,0.029975,0.018925,0.238055,0.000119,  34.740
   347.0,0.029959,0.018916,0.236681,0.000106,  34.739
   348.0,0.029870,0.018874,0.236483,0.000070,  34.746
   349.0,0.029847,0.018838,0.235565,0.000070,  34.748
   350.0,0.029864,0.018847,0.235273,0.000106,  34.750
   351.0,0.029833,0.018842,0.234918,0.000056,  34.745
   352.0,0.029798,0.018821,0.234320,0.000056,  34.750
   353.0,0.029748,0.018798,0.233526,0.000079,  34.745
   354.0,0.029728,0.018788,0.232622,0.000056,  34.746
   355.0,0.029682,0.018757,0.230678,0.000079,  34.745
   356.0,0.029632,0.018739,0.230473,0.000043,  34.744
   357.0,0.029549,0.018679,0.230318,0.000056,  34.745
   358.0,0.029478,0.018643,0.229776,0.000079,  34.747
   359.0,0.029442,0.018614,0.229065,0.000056,  34.749
   360.0,0.029337,0.018560,0.227984,0.000056,  34.754
   361.0,0.029241,0.018496,0.227446,0.000079,  34.756
   362.0,0.029204,0.018466,0.226489,0.000079,  34.761
   363.0,0.029168,0.018432,0.225523,0.000043,  34.771
   364.0,0.029073,0.018388,0.224483,0.000079,  34.778
   365.0,0.028984,0.018337,0.223831,0.000043,  34.783
   366.0,0.028929,0.018311,0.222918,0.000079,  34.792
   367.0,0.028858,0.018263,0.221766,0.000056,  34.801
   368.0,0.028753,0.018196,0.219839,0.000056,  34.807
   369.0,0.028653,0.018148,0.218262,0.000079,  34.806
   370.0,0.028565,0.018088,0.218539,0.000056,  34.811
   371.0,0.028455,0.018021,0.218041,0.000056,  34.812
   372.0,0.028337,0.017937,0.217019,0.000079,  34.814
   373.0,0.028212,0.017869,0.216100,0.000092,  34.814
   374.0,0.028137,0.017827,0.215173,0.000079,  34.820
   375.0,0.028062,0.017780,0.214262,0.000056,  34.822
   376.0,0.027946,0.017715,0.213003,0.000056,  34.825
   377.0,0.027834,0.017643,0.211798,0.000079,  34.837
   378.0,0.027729,0.017565,0.210612,0.000056,  34.839
   379.0,0.027630,0.017498,0.209332,0.000056,  34.835
   380.0,0.027481,0.017409,0.208103,0.000092,  34.838
   381.0,0.027312,0.017307,0.206840,0.000056,  34.836
   382.0,0.027218,0.017252,0.205144,0.000079,  34.835
   383.0,0.027105,0.017180,0.204781,0.000056,  34.833
   384.0,0.026918,0.017092,0.203759,0.000056,  34.835
   385.0,0.026812,0.016997,0.202870,0.000079,  34.833
   386.0,0.026696,0.016918,0.201191,0.000056,  34.832
   387.0,0.026584,0.016846,0.200176,0.000056,  34.836
   388.0,0.026439,0.016761,0.198922,0.000079,  34.835
   389.0,0.026301,0.016674,0.197571,0.000079,  34.837
   390.0,0.026184,0.016612,0.196203,0.000087,  34.834
   391.0,0.026036,0.016528,0.194827,0.000101,  34.835
   392.0,0.025874,0.016436,0.193716,0.000065,  34.830
   393.0,0.025697,0.016319,0.192654,0.000052,  34.824
   394.0,0.025565,0.016219,0.191621,0.000030,  34.813
   395.0,0.025417,0.016127,0.190064,0.000043,  34.805
   396.0,0.025254,0.016030,0.188781,0.000065,  34.805
   397.0,0.025067,0.015918,0.187724,0.000030,  34.801
   398.0,0.024948,0.015826,0.186553,0.000043,  34.808
   399.0,0.024803,0.015754,0.184242,0.000065,  34.799
   400.0,0.024631,0.015665,0.182981,0.000030,  34.796
   401.0,0.024467,0.015548,0.182323,0.000065,  34.797
   402.0,0.024339,0.015460,0.180890,0.000030,  34.796
   403.0,0.024210,0.015367,0.179450,0.000043,  34.800
   404.0,0.024007,0.015247,0.177721,0.000065,  34.803
   405.0,0.023840,0.015137,0.176504,0.000052,  34.810
   406.0,0.023669,0.015031,0.174566,0.000065,  34.821
   407.0,0.023472,0.014915,0.173745,0.000087,  34.831
   408.0,0.023301,0.014820,0.172497,0.000101,  34.840
   409.0,0.023113,0.014713,0.171245,0.000065,  34.845
   410.0,0.022953,0.014614,0.170312,0.000030,  34.848
   411.0,0.022814,0.014508,0.168854,0.000043,  34.843
   412.0,0.022681,0.014417,0.166746,0.000079,  34.848
   413.0,0.022502,0.014317,0.164197,0.000056,  34.848
   414.0,0.022337,0.014211,0.163968,0.000056,  34.844
   415.0,0.022181,0.014108,0.162760,0.000065,  34.841
   416.0,0.021991,0.014000,0.161162,0.000030,  34.844
   417.0,0.021791,0.013891,0.159983,0.000052,  34.844
   418.0,0.021623,0.013779,0.158709,0.000016,  34.838
   419.0,0.021427,0.013660,0.157649,0.000043,  34.840
   420.0,0.021230,0.013540,0.156332,0.000065,  34.838
   421.0,0.021076,0.013401,0.154646,0.000030,  34.834
   422.0,0.020916,0.013302,0.153312,0.000030,  34.831
   423.0,0.020759,0.013209,0.151441,0.000052,  34.822
   424.0,0.020580,0.013101,0.150401,0.000003,  34.820
   425.0,0.020399,0.012989,0.149150,0.000016,  34.814
   426.0,0.020219,0.012889,0.147486,0.000003,  34.809
   427.0,0.020041,0.012782,0.145972,0.000016,  34.806
   428.0,0.019860,0.012667,0.144752,0.000038,  34.804
   429.0,0.019686,0.012547,0.143482,0.000003,  34.804
   430.0,0.019517,0.012440,0.142394,0.000016,  34.806
   431.0,0.019333,0.012314,0.140886,0.000038,  34.800
   432.0,0.019150,0.012198,0.139482,0.000003,  34.804
   433.0,0.018945,0.012067,0.138087,0.000016,  34.804
   434.0,0.018775,0.011970,0.136667,0.000052,  34.803
   435.0,0.018627,0.011895,0.135039,0.000052,  34.806
   436.0,0.018461,0.011792,0.134014,0.000038,  34.808
   437.0,0.018275,0.011670,0.132910,0.000003,  34.807
   438.0,0.018127,0.011560,0.131347,0.000016,  34.804
   439.0,0.017964,0.011460,0.129885,0.000038,  34.812
   440.0,0.017769,0.011344,0.127911,0.000003,  34.812
   441.0,0.017593,0.011222,0.126158,0.000016,  34.815
   442.0,0.017416,0.011117,0.125455,0.000038,  34.828
   443.0,0.017245,0.011007,0.124185,0.000003,  34.829
   444.0,0.017076,0.010920,0.122055,0.000038,  34.832
   445.0,0.016861,0.010786,0.121285,0.000003,  34.841
   446.0,0.016695,0.010679,0.120626,0.000016,  34.845
   447.0,0.016574,0.010567,0.118814,0.000038,  34.845
   448.0,0.016416,0.010481,0.117511,0.000003,  34.850
   449.0,0.016246,0.010375,0.116274,-0.000011,  34.844
   450.0,0.016060,0.010271,0.115263,0.000025,  34.843
   451.0,0.015918,0.010171,0.113839,0.000003,  34.845
   452.0,0.015742,0.010056,0.112269,-0.000011,  34.841
   453.0,0.015552,0.009964,0.110928,-0.000011,  34.844
   454.0,0.015368,0.009839,0.110072,-0.000011,  34.842
   455.0,0.015210,0.009744,0.108274,0.000025,  34.837
   456.0,0.015055,0.009636,0.107534,0.000003,  34.835
   457.0,0.014876,0.009512,0.106302,-0.000011,  34.837
   458.0,0.014710,0.009409,0.104433,0.000025,  34.832
   459.0,0.014575,0.009320,0.102721,0.000003,  34.835
   460.0,0.014410,0.009212,0.102182,-0.000011,  34.839
   461.0,0.014257,0.009129,0.101209,0.000025,  34.842
   462.0,0.014097,0.009052,0.100077,-0.000011,  34.847
   463.0,0.013946,0.008945,0.099182,0.000011,  34.851
   464.0,0.013783,0.008849,0.097695,0.000003,  34.855
   465.0,0.013620,0.008741,0.096587,-0.000011,  34.856
   466.0,0.013467,0.008635,0.095027,0.000025,  34.858
   467.0,0.013312,0.008527,0.093945,-0.000024,  34.859
   468.0,0.013155,0.008439,0.092976,0.000011,  34.860
   469.0,0.012997,0.008337,0.091987,0.000047,  34.851
   470.0,0.012835,0.008241,0.090379,-0.000024,  34.857
   471.0,0.012703,0.008162,0.089318,-0.000002,  34.854
   472.0,0.012557,0.008072,0.088587,-0.000024,  34.851
   473.0,0.012408,0.007980,0.087361,-0.000024,  34.843
   474.0,0.012294,0.007888,0.086363,0.000011,  34.847
   475.0,0.012153,0.007803,0.085209,-0.000024,  34.848
   476.0,0.011998,0.007713,0.084000,-0.000038,  34.845
   477.0,0.011836,0.007608,0.081192,-0.000002,  34.846
   478.0,0.011677,0.007524,0.081175,-0.000024,  34.848
   479.0,0.011537,0.007434,0.080478,-0.000016,  34.851
   480.0,0.011405,0.007354,0.079605,0.000033,  34.850
   481.0,0.011243,0.007259,0.078574,-0.000024,  34.854
   482.0,0.011111,0.007169,0.077874,-0.000002,  34.851
   483.0,0.010992,0.007085,0.076891,-0.000024,  34.857
   484.0,0.010888,0.007015,0.075218,-0.000051,  34.855
   485.0,0.010749,0.006916,0.074280,-0.000002,  34.854
   486.0,0.010589,0.006826,0.073585,-0.000024,  34.853
   487.0,0.010463,0.006748,0.072449,-0.000038,  34.859
   488.0,0.010337,0.006667,0.071362,-0.000002,  34.860
   489.0,0.010203,0.006581,0.070425,-0.000002,  34.862
   490.0,0.010059,0.006507,0.069626,-0.000002,  34.860
   491.0,0.009933,0.006422,0.068815,-0.000051,  34.873
   492.0,0.009800,0.006335,0.067928,-0.000065,  34.880
   493.0,0.009701,0.006257,0.066813,-0.000029,  34.882
   494.0,0.009571,0.006183,0.065863,-0.000038,  34.882
   495.0,0.009455,0.006101,0.065105,-0.000051,  34.891
   496.0,0.009328,0.006029,0.063791,0.000006,  34.886
   497.0,0.009218,0.005968,0.062439,-0.000002,  34.884
   498.0,0.009087,0.005894,0.061850,-0.000016,  34.887
   499.0,0.008968,0.005817,0.061278,-0.000038,  34.890
   500.0,0.008857,0.005755,0.060064,-0.000065,  34.888
   501.0,0.008745,0.005678,0.059030,-0.000029,  34.891
   502.0,0.008631,0.005587,0.058672,-0.000065,  34.894
   503.0,0.008500,0.005499,0.058007,-0.000065,  34.889
   504.0,0.008393,0.005434,0.057201,-0.000029,  34.886
   505.0,0.008279,0.005374,0.056424,-0.000065,  34.883
   506.0,0.008162,0.005291,0.055328,-0.000029,  34.879
   507.0,0.008066,0.005240,0.054578,-0.000038,  34.879
   508.0,0.007955,0.005185,0.053743,-0.000051,  34.867
   509.0,0.007836,0.005118,0.052970,-0.000016,  34.870
   510.0,0.007756,0.005034,0.052377,-0.000051,  34.866
   511.0,0.007645,0.004970,0.051382,-0.000051,  34.862
   512.0,0.007549,0.004909,0.050560,-0.000016,  34.862
   513.0,0.007454,0.004850,0.049669,-0.000051,  34.862
   514.0,0.007348,0.004780,0.048921,-0.000051,  34.856
   515.0,0.007232,0.004712,0.047132,-0.000038,  34.855
   516.0,0.007116,0.004649,0.047025,-0.000078,  34.869
   517.0,0.007017,0.004591,0.046281,-0.000029,  34.872
   518.0,0.006917,0.004512,0.045775,-0.000051,  34.871
   519.0,0.006837,0.004454,0.045436,-0.000051,  34.870
   520.0,0.006758,0.004413,0.044761,-0.000016,  34.875
   521.0,0.006660,0.004347,0.044024,-0.000043,  34.877
   522.0,0.006571,0.004293,0.043365,-0.000029,  34.879
   523.0,0.006482,0.004239,0.042645,-0.000007,  34.879
   524.0,0.006393,0.004187,0.041097,-0.000051,  34.878
   525.0,0.006297,0.004143,0.040382,-0.000016,  34.885
   526.0,0.006212,0.004085,0.040355,-0.000051,  34.887
   527.0,0.006121,0.004032,0.039954,-0.000051,  34.888
   528.0,0.006051,0.003970,0.039443,-0.000016,  34.894
   529.0,0.005956,0.003908,0.038951,-0.000051,  34.893
   530.0,0.005865,0.003852,0.038288,-0.000051,  34.892
   531.0,0.005784,0.003807,0.037800,-0.000016,  34.892
   532.0,0.005695,0.003748,0.037037,-0.000051,  34.899
   533.0,0.005633,0.003709,0.036330,-0.000016,  34.892
   534.0,0.005552,0.003663,0.035877,-0.000038,  34.896
   535.0,0.005467,0.003613,0.035321,-0.000051,  34.894
   536.0,0.005397,0.003576,0.034762,-0.000029,  34.900
   537.0,0.005321,0.003525,0.034037,-0.000065,  34.898
   538.0,0.005251,0.003467,0.032304,-0.000038,  34.900
   539.0,0.005177,0.003418,0.032655,-0.000016,  34.901
   540.0,0.005101,0.003368,0.032373,-0.000051,  34.895
   541.0,0.005038,0.003331,0.031841,-0.000043,  34.895
   542.0,0.004942,0.003263,0.031234,0.000006,  34.895
   543.0,0.004882,0.003228,0.030797,-0.000029,  34.894
   544.0,0.004814,0.003185,0.030338,-0.000029,  34.893
   545.0,0.004738,0.003144,0.029638,-0.000065,  34.899
   546.0,0.004679,0.003104,0.028741,-0.000065,  34.902
   547.0,0.004615,0.003071,0.028553,-0.000043,  34.902
   548.0,0.004544,0.003022,0.027126,-0.000065,  34.908
   549.0,0.004474,0.002962,0.026963,-0.000065,  34.911
   550.0,0.004399,0.002918,0.026876,-0.000029,  34.915
   551.0,0.004317,0.002871,0.026558,-0.000029,  34.920
   552.0,0.004256,0.002829,0.026196,-0.000016,  34.927
   553.0,0.004193,0.002789,0.025852,-0.000065,  34.935
   554.0,0.004130,0.002746,0.024853,-0.000065,  34.933
   555.0,0.004079,0.002713,0.024766,-0.000029,  34.929
   556.0,0.004020,0.002681,0.024147,-0.000065,  34.932
   557.0,0.003972,0.002642,0.024091,-0.000038,  34.936
   558.0,0.003912,0.002611,0.023783,-0.000029,  34.933
   559.0,0.003849,0.002572,0.023351,-0.000065,  34.931
   560.0,0.003808,0.002555,0.022760,-0.000029,  34.934
   561.0,0.003748,0.002519,0.022333,-0.000065,  34.934
   562.0,0.003690,0.002488,0.021998,-0.000065,  34.928
   563.0,0.003649,0.002454,0.021571,-0.000029,  34.927
   564.0,0.003589,0.002419,0.021177,-0.000065,  34.928
   565.0,0.003529,0.002381,0.020912,-0.000065,  34.927
   566.0,0.003480,0.002353,0.020415,-0.000029,  34.925
   567.0,0.003427,0.002315,0.019982,-0.000065,  34.926
   568.0,0.003376,0.002281,0.019222,-0.000065,  34.931
   569.0,0.003330,0.002254,0.019052,-0.000065,  34.929
   570.0,0.003278,0.002222,0.018721,-0.000065,  34.927
   571.0,0.003222,0.002199,0.018513,-0.000029,  34.927
   572.0,0.003186,0.002160,0.018288,-0.000065,  34.927
   573.0,0.003142,0.002137,0.017811,-0.000065,  34.928
   574.0,0.003092,0.002112,0.017465,-0.000029,  34.924
   575.0,0.003033,0.002084,0.017241,-0.000065,  34.924
   576.0,0.002998,0.002038,0.017037,-0.000065,  34.923
   577.0,0.002949,0.002015,0.015784,-0.000043,  34.927
   578.0,0.002898,0.001994,0.015577,-0.000065,  34.925
   579.0,0.002869,0.001967,0.015765,-0.000043,  34.927
   580.0,0.002822,0.001942,0.015512,-0.000065,  34.919
   581.0,0.002789,0.001913,0.015264,-0.000065,  34.924
   582.0,0.002747,0.001889,0.013383,-0.000043,  34.918
   583.0,0.002711,0.001858,0.013028,-0.000065,  34.917
   584.0,0.002672,0.001842,0.013368,-0.000065,  34.914
   585.0,0.002630,0.001816,0.013712,-0.000043,  34.913
   586.0,0.002579,0.001792,0.013759,-0.000065,  34.907
   587.0,0.002544,0.001785,0.012847,-0.000029,  34.907
   588.0,0.002498,0.001741,0.013021,-0.000043,  34.907
   589.0,0.002469,0.001717,0.012999,-0.000029,  34.912
   590.0,0.002431,0.001686,0.012789,-0.000029,  34.915
   591.0,0.002389,0.001659,0.012198,-0.000065,  34.916
   592.0,0.002368,0.001640,0.011507,-0.000065,  34.914
   593.0,0.002337,0.001627,0.011305,-0.000029,  34.920
   594.0,0.002303,0.001608,0.011497,0.000006,  34.921
   595.0,0.002262,0.001579,0.011384,-0.000029,  34.921
   596.0,0.002236,0.001565,0.011072,-0.000029,  34.923
   597.0,0.002202,0.001542,0.010974,-0.000065,  34.929
   598.0,0.002157,0.001522,0.010176,-0.000043,  34.928
   599.0,0.002133,0.001506,0.010326,-0.000065,  34.929
   600.0,0.002103,0.001480,0.010204,-0.000065,  34.932
   601.0,0.002067,0.001456,0.010148,-0.000029,  34.930
   602.0,0.002027,0.001438,0.009775,-0.000065,  34.933
   603.0,0.002011,0.001418,0.009720,-0.000065,  34.936
   604.0,0.001985,0.001406,0.008076,-0.000065,  34.932
   605.0,0.001967,0.001381,0.008770,-0.000065,  34.933
   606.0,0.001941,0.001377,0.008879,-0.000043,  34.931
   607.0,0.001902,0.001360,0.008745,-0.000065,  34.935
   608.0,0.001876,0.001330,0.008528,-0.000065,  34.929
   609.0,0.001850,0.001315,0.008304,-0.000043,  34.927
   610.0,0.001827,0.001301,0.008104,-0.000065,  34.930
   611.0,0.001803,0.001291,0.007621,-0.000065,  34.925
   612.0,0.001765,0.001272,0.007706,-0.000043,  34.921
   613.0,0.001741,0.001254,0.006587,-0.000043,  34.924
   614.0,0.001719,0.001245,0.007056,-0.000043,  34.926
   615.0,0.001692,0.001220,0.007018,-0.000065,  34.930
   616.0,0.001671,0.001223,0.006927,-0.000065,  34.933
   617.0,0.001659,0.001205,0.006800,-0.000029,  34.930
   618.0,0.001635,0.001182,0.006753,-0.000065,  34.933
   619.0,0.001609,0.001175,0.006629,-0.000065,  34.933
   620.0,0.001589,0.001163,0.006312,-0.000029,  34.936
   621.0,0.001570,0.001145,0.006095,0.000006,  34.934
   622.0,0.001545,0.001127,0.005868,-0.000007,  34.935
   623.0,0.001526,0.001115,0.005935,-0.000065,  34.938
   624.0,0.001498,0.001102,0.005017,-0.000065,  34.938
   625.0,0.001485,0.001083,0.005191,-0.000043,  34.939
   626.0,0.001464,0.001076,0.005346,-0.000065,  34.937
   627.0,0.001447,0.001058,0.005307,-0.000065,  34.935
   628.0,0.001419,0.001052,0.005117,-0.000043,  34.930
   629.0,0.001403,0.001043,0.004785,-0.000078,  34.937
   630.0,0.001388,0.001035,0.004756,-0.000056,  34.930
   631.0,0.001358,0.001017,0.004798,-0.000065,  34.934
   632.0,0.001338,0.001003,0.003953,-0.000065,  34.934
   633.0,0.001328,0.000984,0.004139,-0.000043,  34.931
   634.0,0.001313,0.000978,0.004093,-0.000043,  34.939
   635.0,0.001292,0.000962,0.004008,-0.000065,  34.939
   636.0,0.001263,0.000961,0.003935,-0.000043,  34.936
   637.0,0.001247,0.000949,0.003971,-0.000065,  34.939
   638.0,0.001239,0.000937,0.003853,-0.000065,  34.941
   639.0,0.001225,0.000929,0.002961,-0.000043,  34.939
   640.0,0.001203,0.000917,0.002829,-0.000065,  34.943
   641.0,0.001186,0.000909,0.003173,-0.000043,  34.943
   642.0,0.001173,0.000897,0.003313,-0.000065,  34.945
   643.0,0.001154,0.000882,0.002622,-0.000065,  34.948
   644.0,0.001133,0.000872,0.002847,-0.000007,  34.949
   645.0,0.001126,0.000867,0.002764,0.000006,  34.955
   646.0,0.001113,0.000860,0.002734,-0.000029,  34.947
   647.0,0.001092,0.000847,0.002646,-0.000043,  34.956
   648.0,0.001076,0.000834,0.002603,-0.000065,  34.956
   649.0,0.001058,0.000824,0.002369,-0.000043,  34.958
   650.0,0.001039,0.000801,0.002337,-0.000065,  34.971
   651.0,0.001023,0.000797,0.002239,-0.000065,  34.973
   652.0,0.001021,0.000808,0.002036,-0.000043,  34.970
   653.0,0.001012,0.000795,0.001949,-0.000065,  34.975
   654.0,0.000996,0.000786,0.001890,-0.000065,  34.969
   655.0,0.000989,0.000773,0.001889,-0.000029,  34.968
   656.0,0.000976,0.000768,0.001525,-0.000065,  34.968
   657.0,0.000964,0.000767,0.001245,-0.000065,  34.962
   658.0,0.000958,0.000756,0.001531,-0.000065,  34.969
   659.0,0.000960,0.000756,0.001449,-0.000065,  34.966
   660.0,0.000933,0.000747,0.001389,-0.000043,  34.963
   661.0,0.000905,0.000729,0.001403,-0.000065,  34.953
   662.0,0.000901,0.000723,0.001272,-0.000065,  34.949
   663.0,0.000888,0.000719,0.001199,-0.000043,  34.953
   664.0,0.000877,0.000695,0.001063,-0.000078,  34.951
   665.0,0.000867,0.000707,0.001057,-0.000078,  34.947
   666.0,0.000856,0.000698,0.001094,-0.000043,  34.948
   667.0,0.000845,0.000696,0.000821,-0.000065,  34.948
   668.0,0.000844,0.000686,0.000856,-0.000043,  34.948
   669.0,0.000834,0.000681,0.000774,-0.000065,  34.946
   670.0,0.000818,0.000675,0.000613,-0.000065,  34.947
   671.0,0.000810,0.000663,0.000581,-0.000043,  34.953
   672.0,0.000803,0.000659,-0.000662,-0.000078,  34.956
   673.0,0.000792,0.000644,0.000020,-0.000092,  34.957
   674.0,0.000778,0.000647,0.000319,-0.000048,  34.959
   675.0,0.000762,0.000639,0.000180,-0.000105,  34.955
   676.0,0.000763,0.000644,0.000312,-0.000070,  34.944
   677.0,0.000747,0.000637,0.000228,-0.000092,  34.936
   678.0,0.000762,0.000621,0.000107,-0.000078,  34.933
   679.0,0.000746,0.000617,-0.000080,-0.000043,  34.930
   680.0,0.000728,0.000612,-0.000146,-0.000043,  34.923
   681.0,0.000722,0.000612,-0.000021,-0.000056,  34.927
   682.0,0.000714,0.000612,-0.000206,-0.000056,  34.921
   683.0,0.000692,0.000593,-0.000246,-0.000092,  34.921
   684.0,0.000697,0.000605,-0.000258,-0.000078,  34.919
   685.0,0.000684,0.000590,-0.000630,-0.000092,  34.922
   686.0,0.000679,0.000579,-0.000405,-0.000078,  34.922
   687.0,0.000671,0.000574,-0.000484,-0.000056,  34.922
   688.0,0.000668,0.000574,-0.000547,-0.000078,  34.922
   689.0,0.000658,0.000574,-0.000474,-0.000078,  34.923
   690.0,0.000653,0.000562,-0.000503,-0.000043,  34.917
   691.0,0.000657,0.000565,-0.001112,-0.000065,  34.914
   692.0,0.000639,0.000569,-0.000848,-0.000065,  34.908
   693.0,0.000631,0.000562,-0.000798,-0.000043,  34.910
   694.0,0.000635,0.000550,-0.000735,-0.000065,  34.909
   695.0,0.000632,0.000548,-0.000803,-0.000043,  34.906
   696.0,0.000616,0.000549,-0.000851,-0.000065,  34.905
   697.0,0.000617,0.000537,-0.000654,-0.000065,  34.904
   698.0,0.000609,0.000530,-0.001392,-0.000043,  34.902
   699.0,0.000604,0.000532,-0.001192,-0.000065,  34.893
   700.0,0.000591,0.000517,-0.001483,-0.000065,  34.887
   701.0,0.000598,0.000527,-0.001248,-0.000078,  34.892
   702.0,0.000574,0.000517,-0.001179,-0.000065,  34.902
   703.0,0.000567,0.000514,-0.001697,-0.000078,  34.906
   704.0,0.000560,0.000503,-0.001376,-0.000065,  34.910
   705.0,0.000560,0.000501,-0.001355,-0.000065,  34.915
   706.0,0.000555,0.000495,-0.001187,-0.000065,  34.921
   707.0,0.000547,0.000490,-0.001229,-0.000065,  34.920
   708.0,0.000549,0.000481,-0.001385,-0.000065,  34.920
   709.0,0.000539,0.000488,-0.001499,-0.000056,  34.911
   710.0,0.000531,0.000476,-0.001517,-0.000065,  34.913
   711.0,0.000531,0.000479,-0.001685,-0.000065,  34.911
   712.0,0.000518,0.000484,-0.001916,-0.000065,  34.908
   713.0,0.000512,0.000474,-0.001741,-0.000078,  34.909
   714.0,0.000507,0.000459,-0.001775,-0.000056,  34.914
   715.0,0.000507,0.000463,-0.001704,-0.000078,  34.911
   716.0,0.000508,0.000466,-0.001669,-0.000065,  34.912
   717.0,0.000499,0.000466,-0.001719,-0.000021,  34.909
   718.0,0.000496,0.000462,-0.001657,-0.000078,  34.912
   719.0,0.000492,0.000462,-0.001801,-0.000065,  34.908
   720.0,0.000489,0.000454,-0.001685,-0.000065,  34.906
   721.0,0.000470,0.000450,-0.001767,-0.000065,  34.904
   722.0,0.000477,0.000455,-0.001767,-0.000029,  34.912
   723.0,0.000488,0.000449,-0.001743,-0.000065,  34.913
   724.0,0.000491,0.000461,-0.001761,-0.000065,  34.919
   725.0,0.000487,0.000470,-0.001875,-0.000029,  34.918
   726.0,0.000485,0.000463,-0.001809,-0.000065,  34.922
   727.0,0.000480,0.000456,-0.001756,-0.000065,  34.916
   728.0,0.000472,0.000456,-0.001760,-0.000065,  34.912
   729.0,0.000469,0.000455,-0.001929,-0.000065,  34.913
   730.0,0.000467,0.000449,-0.001980,-0.000051,  34.914
   731.0,0.000464,0.000449,-0.002064,-0.000051,  34.920
   732.0,0.000467,0.000452,-0.002066,-0.000051,  34.924
   733.0,0.000463,0.000452,-0.001872,-0.000051,  34.922
   734.0,0.000452,0.000445,-0.002027,-0.000065,  34.928
   735.0,0.000453,0.000439,-0.001986,-0.000065,  34.929
   736.0,0.000445,0.000433,-0.002110,-0.000065,  34.928
   737.0,0.000437,0.000433,-0.002199,-0.000051,  34.926
   738.0,0.000438,0.000430,-0.002209,-0.000051,  34.929
   739.0,0.000438,0.000432,-0.002215,-0.000087,  34.927
   740.0,0.000441,0.000436,-0.002174,-0.000114,  34.923
   741.0,0.000432,0.000441,-0.002302,-0.000101,  34.923
   742.0,0.000421,0.000432,-0.002370,-0.000065,  34.926
   743.0,0.000425,0.000427,-0.002349,-0.000065,  34.928
   744.0,0.000422,0.000422,-0.002456,-0.000043,  34.928
   745.0,0.000413,0.000425,-0.002338,-0.000065,  34.934
   746.0,0.000418,0.000410,-0.002079,-0.000065,  34.935
   747.0,0.000407,0.000407,-0.002163,-0.000065,  34.940
   748.0,0.000403,0.000408,-0.002313,-0.000065,  34.947
   749.0,0.000399,0.000404,-0.002704,-0.000029,  34.952
   750.0,0.000393,0.000404,-0.002723,-0.000065,  34.953
   751.0,0.000396,0.000408,-0.002556,-0.000051,  34.952
   752.0,0.000396,0.000401,-0.002513,-0.000043,  34.955
   753.0,0.000388,0.000406,-0.002521,-0.000065,  34.953
   754.0,0.000389,0.000402,-0.002390,-0.000065,  34.949
   755.0,0.000392,0.000408,-0.002362,-0.000065,  34.950
   756.0,0.000395,0.000386,-0.002374,-0.000065,  34.949
   757.0,0.000396,0.000405,-0.002518,-0.000029,  34.947
   758.0,0.000389,0.000401,-0.002578,-0.000038,  34.953
   759.0,0.000391,0.000395,-0.002577,-0.000051,  34.950
   760.0,0.000388,0.000400,-0.002910,-0.000016,  34.955
   761.0,0.000389,0.000402,-0.002675,-0.000051,  34.955
   762.0,0.000390,0.000403,-0.002620,-0.000051,  34.954
   763.0,0.000384,0.000407,-0.002915,-0.000051,  34.948
   764.0,0.000382,0.000398,-0.002778,-0.000051,  34.953
   765.0,0.000380,0.000398,-0.002746,-0.000051,  34.949
   766.0,0.000376,0.000389,-0.003258,-0.000065,  34.953
   767.0,0.000367,0.000386,-0.002958,-0.000065,  34.952
   768.0,0.000367,0.000374,-0.003276,-0.000051,  34.949
   769.0,0.000358,0.000382,-0.003041,-0.000051,  34.949
   770.0,0.000350,0.000376,-0.002874,-0.000051,  34.946
   771.0,0.000355,0.000376,-0.002848,-0.000051,  34.943
   772.0,0.000350,0.000378,-0.002829,-0.000051,  34.936
   773.0,0.000364,0.000384,-0.002935,-0.000051,  34.935
   774.0,0.000358,0.000385,-0.003037,-0.000051,  34.932
   775.0,0.000351,0.000379,-0.003158,-0.000065,  34.926
   776.0,0.000352,0.000384,-0.002952,-0.000029,  34.926
   777.0,0.000346,0.000391,-0.002968,-0.000065,  34.934
   778.0,0.000352,0.000380,-0.002963,-0.000065,  34.936
   779.0,0.000350,0.000376,-0.002889,-0.000029,  34.934
   780.0,0.000345,0.000378,-0.003342,-0.000065,  34.931
   781.0,0.000347,0.000386,-0.003075,-0.000065,  34.936
   782.0,0.000334,0.000367,-0.002903,-0.000051,  34.932
   783.0,0.000331,0.000364,-0.002936,-0.000078,  34.935
   784.0,0.000339,0.000374,-0.002889,-0.000029,  34.927
   785.0,0.000339,0.000377,-0.002793,-0.000065,  34.929
   786.0,0.000347,0.000374,-0.003283,-0.000038,  34.927
   787.0,0.000342,0.000372,-0.003103,-0.000029,  34.926
   788.0,0.000345,0.000369,-0.003118,-0.000051,  34.922
   789.0,0.000342,0.000371,-0.002947,-0.000051,  34.922
   790.0,0.000339,0.000380,-0.003135,-0.000051,  34.919
   791.0,0.000336,0.000369,-0.003100,-0.000065,  34.909
   792.0,0.000345,0.000366,-0.002968,-0.000021,  34.898
   793.0,0.000339,0.000374,-0.003360,-0.000051,  34.891
   794.0,0.000342,0.000367,-0.003662,-0.000051,  34.894
   795.0,0.000329,0.000353,-0.003292,-0.000051,  34.888
   796.0,0.000328,0.000358,-0.003259,-0.000051,  34.888
   797.0,0.000332,0.000354,-0.003201,-0.000051,  34.890
   798.0,0.000332,0.000366,-0.003118,-0.000051,  34.893
   799.0,0.000321,0.000353,-0.003122,-0.000051,  34.893
   800.0,0.000314,0.000363,-0.003051,-0.000051,  34.895
   801.0,0.000320,0.000361,-0.003199,-0.000051,  34.904
   802.0,0.000323,0.000348,-0.003178,-0.000051,  34.897
   803.0,0.000321,0.000359,-0.003217,-0.000051,  34.898
   804.0,0.000315,0.000356,-0.003267,-0.000051,  34.898
   805.0,0.000314,0.000357,-0.003346,-0.000051,  34.898
   806.0,0.000315,0.000356,-0.003288,-0.000051,  34.895
   807.0,0.000324,0.000358,-0.003274,-0.000051,  34.894
   808.0,0.000325,0.000360,-0.003188,-0.000051,  34.895
   809.0,0.000321,0.000356,-0.003225,-0.000051,  34.900
   810.0,0.000321,0.000354,-0.003265,-0.000051,  34.899
   811.0,0.000324,0.000353,-0.003469,-0.000038,  34.910
   812.0,0.000321,0.000349,-0.003533,-0.000024,  34.911
   813.0,0.000325,0.000364,-0.003324,-0.000024,  34.911
   814.0,0.000321,0.000360,-0.003468,-0.000038,  34.906
   815.0,0.000315,0.000352,-0.003351,-0.000024,  34.904
   816.0,0.000329,0.000363,-0.003186,-0.000024,  34.903
   817.0,0.000332,0.000370,-0.003203,-0.000024,  34.903
   818.0,0.000318,0.000357,-0.003360,-0.000024,  34.898
   819.0,0.000324,0.000355,-0.003945,-0.000038,  34.905
   820.0,0.000323,0.000360,-0.003422,-0.000024,  34.906
   821.0,0.000324,0.000364,-0.003403,-0.000038,  34.907
   822.0,0.000318,0.000362,-0.004262,-0.000074,  34.903
   823.0,0.000313,0.000357,-0.003655,-0.000016,  34.908
   824.0,0.000309,0.000361,-0.003539,-0.000051,  34.912
   825.0,0.000321,0.000358,-0.003492,-0.000038,  34.909
   826.0,0.000315,0.000352,-0.003432,-0.000038,  34.905
   827.0,0.000315,0.000356,-0.003602,-0.000051,  34.922
   828.0,0.000310,0.000350,-0.003546,-0.000051,  34.928
   829.0,0.000304,0.000347,-0.003519,-0.000065,  34.930
   830.0,0.000308,0.000344,-0.003839,-0.000078,  34.930
   831.0,0.000308,0.000341,-0.003808,-0.000051,  34.934
   832.0,0.000296,0.000348,-0.003696,-0.000038,  34.933
   833.0,0.000300,0.000341,-0.004240,-0.000024,  34.935
   834.0,0.000283,0.000335,-0.004002,-0.000024,  34.933
   835.0,0.000295,0.000335,-0.003966,-0.000024,  34.930
   836.0,0.000303,0.000344,-0.003854,-0.000024,  34.926
   837.0,0.000297,0.000345,-0.003552,-0.000024,  34.928
   838.0,0.000302,0.000351,-0.003207,-0.000038,  34.929
   839.0,0.000302,0.000355,-0.004156,-0.000024,  34.926
   840.0,0.000311,0.000355,-0.003704,-0.000051,  34.927
   841.0,0.000306,0.000355,-0.004133,-0.000051,  34.923
   842.0,0.000298,0.000365,-0.004007,-0.000051,  34.929
   843.0,0.000306,0.000351,-0.003651,-0.000038,  34.932
   844.0,0.000288,0.000343,-0.003558,-0.000065,  34.928
   845.0,0.000277,0.000333,-0.003637,-0.000051,  34.929
   846.0,0.000280,0.000330,-0.003702,-0.000051,  34.930
   847.0,0.000277,0.000325,-0.003641,-0.000038,  34.926
   848.0,0.000296,0.000333,-0.003670,-0.000051,  34.929
   849.0,0.000296,0.000342,-0.003619,-0.000051,  34.936
   850.0,0.000292,0.000337,-0.003728,-0.000051,  34.936
   851.0,0.000282,0.000329,-0.004095,-0.000051,  34.937
   852.0,0.000277,0.000324,-0.003714,-0.000038,  34.933
   853.0,0.000279,0.000330,-0.003699,-0.000109,  34.933
   854.0,0.000266,0.000326,-0.003718,-0.000074,  34.938
   855.0,0.000274,0.000338,-0.003455,-0.000060,  34.945
   856.0,0.000268,0.000326,-0.003631,-0.000074,  34.941
   857.0,0.000274,0.000327,-0.003596,-0.000074,  34.947
   858.0,0.000271,0.000320,-0.003691,-0.000038,  34.950
   859.0,0.000275,0.000323,-0.003560,-0.000087,  34.948
   860.0,0.000274,0.000330,-0.004054,-0.000109,  34.949
   861.0,0.000282,0.000340,-0.003723,-0.000074,  34.946
   862.0,0.000284,0.000338,-0.003593,-0.000060,  34.949
   863.0,0.000288,0.000339,-0.003446,0.000011,  34.950
   864.0,0.000284,0.000343,-0.003399,-0.000038,  34.951
   865.0,0.000279,0.000336,-0.003477,-0.000038,  34.948
   866.0,0.000290,0.000337,-0.003680,-0.000038,  34.942
   867.0,0.000302,0.000336,-0.004359,-0.000038,  34.945
   868.0,0.000302,0.000345,-0.004058,-0.000038,  34.946
   869.0,0.000298,0.000357,-0.003785,-0.000024,  34.943
   870.0,0.000296,0.000358,-0.003728,-0.000038,  34.944
   871.0,0.000283,0.000347,-0.003775,-0.000024,  34.936
   872.0,0.000284,0.000333,-0.003709,-0.000051,  34.935
   873.0,0.000278,0.000328,-0.003777,-0.000051,  34.934
   874.0,0.000277,0.000330,-0.004984,-0.000051,  34.940
   875.0,0.000283,0.000340,-0.004240,-0.000051,  34.935
   876.0,0.000290,0.000335,-0.003900,-0.000038,  34.942
   877.0,0.000278,0.000338,-0.003667,-0.000060,  34.935
   878.0,0.000281,0.000347,-0.003860,-0.000060,  34.936
   879.0,0.000278,0.000334,-0.003744,-0.000060,  34.932
   880.0,0.000271,0.000328,-0.003772,-0.000038,  34.938
   881.0,0.000278,0.000333,-0.003837,-0.000047,  34.942
   882.0,0.000282,0.000345,-0.004056,-0.000033,  34.934
   883.0,0.000302,0.000347,-0.003850,-0.000047,  34.941
   884.0,0.000299,0.000348,-0.003797,-0.000047,  34.936
   885.0,0.000293,0.000340,-0.003630,-0.000047,  34.929
   886.0,0.000290,0.000340,-0.003738,-0.000060,  34.923
   887.0,0.000286,0.000336,-0.003748,-0.000096,  34.925
   888.0,0.000294,0.000342,-0.003832,-0.000024,  34.921
   889.0,0.000280,0.000343,-0.004049,-0.000038,  34.924
   890.0,0.000277,0.000344,-0.004566,-0.000024,  34.920
   891.0,0.000276,0.000340,-0.004189,-0.000024,  34.925
   892.0,0.000277,0.000327,-0.004190,-0.000047,  34.929
   893.0,0.000271,0.000327,-0.004073,-0.000033,  34.927
   894.0,0.000265,0.000323,-0.004426,-0.000047,  34.931
   895.0,0.000273,0.000328,-0.004132,-0.000047,  34.933
   896.0,0.000259,0.000322,-0.003913,-0.000055,  34.941
   897.0,0.000259,0.000316,-0.003850,-0.000047,  34.939
   898.0,0.000265,0.000329,-0.004335,-0.000033,  34.934
   899.0,0.000269,0.000330,-0.003683,-0.000047,  34.938
   900.0,0.000273,0.000334,-0.004489,-0.000047,  34.936
   901.0,0.000275,0.000340,-0.004324,-0.000047,  34.936
   902.0,0.000277,0.000336,-0.004048,-0.000060,  34.936
   903.0,0.000271,0.000334,-0.004567,-0.000060,  34.936
   904.0,0.000263,0.000335,-0.004509,-0.000096,  34.937
   905.0,0.000259,0.000328,-0.004124,-0.000060,  34.933
   906.0,0.000267,0.000319,-0.003989,-0.000060,  34.938
   907.0,0.000259,0.000318,-0.004132,-0.000060,  34.939
   908.0,0.000262,0.000315,-0.004068,-0.000060,  34.941
   909.0,0.000267,0.000320,-0.004028,-0.000060,  34.941
   910.0,0.000253,0.000324,-0.003863,-0.000060,  34.943
   911.0,0.000264,0.000324,-0.004025,-0.000060,  34.948
   912.0,0.000260,0.000321,-0.003953,-0.000047,  34.945
   913.0,0.000263,0.000329,-0.003944,-0.000060,  34.949
   914.0,0.000280,0.000324,-0.003886,-0.000060,  34.946
   915.0,0.000258,0.000319,-0.004463,-0.000074,  34.952
   916.0,0.000261,0.000333,-0.004137,-0.000074,  34.958
   917.0,0.000260,0.000324,-0.004004,-0.000024,  34.954
   918.0,0.000258,0.000327,-0.004683,-0.000038,  34.957
   919.0,0.000261,0.000323,-0.004248,-0.000074,  34.965
   920.0,0.000253,0.000323,-0.004086,-0.000060,  34.976
   921.0,0.000253,0.000318,-0.003967,-0.000060,  34.975
   922.0,0.000261,0.000319,-0.004072,-0.000060,  34.978
   923.0,0.000265,0.000313,-0.003967,-0.000074,  34.979
   924.0,0.000262,0.000314,-0.004630,-0.000074,  34.973
   925.0,0.000257,0.000304,-0.005110,-0.000038,  34.970
   926.0,0.000247,0.000318,-0.004369,-0.000051,  34.973
   927.0,0.000248,0.000310,-0.004294,-0.000038,  34.973
   928.0,0.000242,0.000313,-0.004072,-0.000024,  34.973
   929.0,0.000242,0.000311,-0.004057,-0.000060,  34.975
   930.0,0.000248,0.000306,-0.004559,-0.000096,  34.974
   931.0,0.000240,0.000301,-0.004412,-0.000060,  34.975
   932.0,0.000242,0.000304,-0.004262,-0.000060,  34.971
   933.0,0.000247,0.000309,-0.004209,-0.000060,  34.973
   934.0,0.000250,0.000316,-0.004662,-0.000002,  34.974
   935.0,0.000253,0.000316,-0.004440,-0.000038,  34.966
   936.0,0.000245,0.000315,-0.006089,-0.000096,  34.970
   937.0,0.000242,0.000315,-0.004771,-0.000074,  34.968
   938.0,0.000234,0.000298,-0.004375,-0.000074,  34.967
   939.0,0.000232,0.000305,-0.004447,-0.000060,  34.964
   940.0,0.000232,0.000296,-0.005037,-0.000074,  34.968
   941.0,0.000234,0.000294,-0.004587,-0.000060,  34.972
   942.0,0.000232,0.000297,-0.004384,-0.000038,  34.970
   943.0,0.000225,0.000287,-0.004238,-0.000087,  34.970
   944.0,0.000219,0.000286,-0.004218,-0.000087,  34.973
   945.0,0.000222,0.000287,-0.004184,-0.000087,  34.973
   946.0,0.000230,0.000293,-0.004210,-0.000087,  34.975
   947.0,0.000234,0.000300,-0.004257,-0.000060,  34.975
   948.0,0.000235,0.000306,-0.004385,-0.000074,  34.979
   949.0,0.000238,0.000317,-0.004464,-0.000060,  34.976
   950.0,0.000232,0.000301,-0.004448,-0.000074,  34.966
   951.0,0.000232,0.000303,-0.004737,-0.000074,  34.966
   952.0,0.000234,0.000305,-0.004566,-0.000060,  34.965
   953.0,0.000220,0.000290,-0.004488,-0.000074,  34.970
   954.0,0.000229,0.000299,-0.004457,-0.000051,  34.971
   955.0,0.000228,0.000291,-0.004574,-0.000074,  34.992
   956.0,0.000228,0.000292,-0.004427,-0.000074,  34.993
   957.0,0.000230,0.000297,-0.004509,-0.000109,  34.994
   958.0,0.000237,0.000295,-0.004410,-0.000074,  35.002
   959.0,0.000224,0.000296,-0.004804,-0.000074,  35.007
   960.0,0.000227,0.000290,-0.004514,-0.000002,  35.009
   961.0,0.000227,0.000291,-0.004443,-0.000038,  35.009
   962.0,0.000224,0.000297,-0.004270,-0.000038,  35.013
   963.0,0.000227,0.000288,-0.004371,-0.000024,  35.011
   964.0,0.000229,0.000306,-0.004490,-0.000038,  35.015
   965.0,0.000240,0.000306,-0.004266,-0.000038,  35.018
   966.0,0.000240,0.000303,-0.004343,-0.000038,  35.015
   967.0,0.000245,0.000318,-0.004384,-0.000038,  35.015
   968.0,0.000247,0.000326,-0.004373,-0.000024,  35.018
   969.0,0.000247,0.000317,-0.004390,-0.000038,  35.025
   970.0,0.000243,0.000318,-0.004318,-0.000038,  35.023
   971.0,0.000232,0.000313,-0.004409,-0.000038,  35.029
   972.0,0.000224,0.000308,-0.004368,-0.000038,  35.035
   973.0,0.000230,0.000310,-0.004983,-0.000051,  35.050
   974.0,0.000227,0.000313,-0.004932,-0.000038,  35.048
   975.0,0.000232,0.000308,-0.004749,-0.000038,  35.052
   976.0,0.000230,0.000302,-0.004547,-0.000024,  35.059
   977.0,0.000227,0.000300,-0.004439,-0.000024,  35.060
   978.0,0.000241,0.000307,-0.004407,-0.000024,  35.058
   979.0,0.000236,0.000313,-0.004887,-0.000096,  35.062
   980.0,0.000235,0.000312,-0.004511,-0.000024,  35.065
   981.0,0.000241,0.000303,-0.004447,-0.000038,  35.064
   982.0,0.000247,0.000308,-0.004344,-0.000011,  35.065
   983.0,0.000247,0.000319,-0.004424,-0.000024,  35.064
   984.0,0.000249,0.000314,-0.004460,-0.000024,  35.067
   985.0,0.000248,0.000317,-0.004375,-0.000038,  35.059
   986.0,0.000248,0.000315,-0.004418,-0.000038,  35.059
   987.0,0.000240,0.000321,-0.004524,-0.000024,  35.061
   988.0,0.000237,0.000306,-0.004418,-0.000038,  35.061
   989.0,0.000239,0.000305,-0.004463,-0.000051,  35.063
   990.0,0.000231,0.000306,-0.004365,-0.000024,  35.062
   991.0,0.000224,0.000306,-0.004344,-0.000038,  35.063
   992.0,0.000225,0.000298,-0.004638,-0.000024,  35.065
   993.0,0.000227,0.000304,-0.005429,-0.000038,  35.070
   994.0,0.000238,0.000310,-0.005063,-0.000065,  35.071
   995.0,0.000229,0.000299,-0.004820,-0.000038,  35.069
   996.0,0.000227,0.000296,-0.004756,-0.000065,  35.072
   997.0,0.000224,0.000299,-0.004626,-0.000101,  35.076
   998.0,0.000227,0.000300,-0.004661,-0.000087,  35.073
   999.0,0.000219,0.000294,-0.004648,-0.000087,  35.077
  1000.0,0.000216,0.000304,-0.005076,-0.000109,  35.081
  1001.0,0.000213,0.000292,-0.004735,-0.000087,  35.080
  1002.0,0.000218,0.000296,-0.004750,-0.000087,  35.079
  1003.0,0.000211,0.000288,-0.004747,-0.000087,  35.079
  1004.0,0.000205,0.000277,-0.005481,-0.000087,  35.084
  1005.0,0.000205,0.000271,-0.004858,-0.000074,  35.095
  1006.0,0.000210,0.000280,-0.004632,-0.000060,  35.102
  1007.0,0.000216,0.000293,-0.004466,-0.000087,  35.105
  1008.0,0.000210,0.000297,-0.004551,-0.000109,  35.106
  1009.0,0.000225,0.000295,-0.004667,-0.000087,  35.107
  1010.0,0.000227,0.000299,-0.004755,-0.000087,  35.107
  1011.0,0.000229,0.000296,-0.004652,-0.000087,  35.109
  1012.0,0.000222,0.000292,-0.004651,-0.000087,  35.106
  1013.0,0.000218,0.000296,-0.004687,-0.000087,  35.108
  1014.0,0.000214,0.000292,-0.004733,-0.000114,  35.110
  1015.0,0.000221,0.000296,-0.004715,-0.000087,  35.105
  1016.0,0.000213,0.000288,-0.004668,-0.000087,  35.106
  1017.0,0.000216,0.000284,-0.004842,-0.000109,  35.099
  1018.0,0.000212,0.000279,-0.005138,-0.000087,  35.102
  1019.0,0.000207,0.000287,-0.005658,-0.000087,  35.100
  1020.0,0.000207,0.000278,-0.005314,-0.000087,  35.098
  1021.0,0.000213,0.000290,-0.004919,-0.000074,  35.098
  1022.0,0.000207,0.000289,-0.004788,-0.000060,  35.095
  1023.0,0.000213,0.000290,-0.005451,-0.000109,  35.101
  1024.0,0.000218,0.000294,-0.005002,-0.000109,  35.099
  1025.0,0.000216,0.000296,-0.005681,-0.000132,  35.103
  1026.0,0.000221,0.000295,-0.005284,-0.000087,  35.099
  1027.0,0.000213,0.000290,-0.004959,-0.000109,  35.109
  1028.0,0.000215,0.000295,-0.004936,-0.000101,  35.108
  1029.0,0.000221,0.000299,-0.004839,-0.000087,  35.107
  1030.0,0.000209,0.000285,-0.004793,-0.000087,  35.104
  1031.0,0.000215,0.000293,-0.004773,-0.000087,  35.096
  1032.0,0.000215,0.000296,-0.004929,-0.000087,  35.087
  1033.0,0.000209,0.000297,-0.004780,-0.000078,  35.091
  1034.0,0.000215,0.000294,-0.004844,-0.000101,  35.091
  1035.0,0.000218,0.000292,-0.004687,-0.000136,  35.089
  1036.0,0.000221,0.000304,-0.004802,-0.000101,  35.085
  1037.0,0.000221,0.000293,-0.004884,-0.000101,  35.088
  1038.0,0.000213,0.000288,-0.004913,-0.000101,  35.087
  1039.0,0.000216,0.000290,-0.005180,-0.000101,  35.087
  1040.0,0.000208,0.000285,-0.005009,-0.000114,  35.082
  1041.0,0.000214,0.000286,-0.004994,-0.000101,  35.084
  1042.0,0.000203,0.000289,-0.004914,-0.000101,  35.078
  1043.0,0.000202,0.000279,-0.004985,-0.000114,  35.081
  1044.0,0.000198,0.000273,-0.005070,-0.000136,  35.084
  1045.0,0.000201,0.000271,-0.005022,-0.000101,  35.082
  1046.0,0.000198,0.000274,-0.004957,-0.000101,  35.097
  1047.0,0.000186,0.000268,-0.004970,-0.000101,  35.093
  1048.0,0.000187,0.000267,-0.004998,-0.000101,  35.092
  1049.0,0.000186,0.000263,-0.005055,-0.000101,  35.098
  1050.0,0.000189,0.000263,-0.005066,-0.000101,  35.096
  1051.0,0.000191,0.000272,-0.005010,-0.000114,  35.103
  1052.0,0.000203,0.000275,-0.006273,-0.000114,  35.100
  1053.0,0.000197,0.000271,-0.005315,-0.000114,  35.102
  1054.0,0.000197,0.000265,-0.005079,-0.000101,  35.109
  1055.0,0.000197,0.000271,-0.005094,-0.000101,  35.109
  1056.0,0.000194,0.000273,-0.005169,-0.000114,  35.109
  1057.0,0.000188,0.000273,-0.005148,-0.000101,  35.111
  1058.0,0.000186,0.000270,-0.005014,-0.000101,  35.110
  1059.0,0.000187,0.000263,-0.005071,-0.000114,  35.109
  1060.0,0.000192,0.000261,-0.004963,-0.000101,  35.102
  1061.0,0.000192,0.000264,-0.005178,-0.000114,  35.106
  1062.0,0.000186,0.000258,-0.005504,-0.000101,  35.106
  1063.0,0.000197,0.000264,-0.005310,-0.000101,  35.105
  1064.0,0.000187,0.000266,-0.005224,-0.000114,  35.108
  1065.0,0.000188,0.000251,-0.005159,-0.000101,  35.103
  1066.0,0.000180,0.000254,-0.005069,-0.000065,  35.111
  1067.0,0.000183,0.000255,-0.005121,-0.000092,  35.106
  1068.0,0.000180,0.000254,-0.005214,-0.000092,  35.108
  1069.0,0.000168,0.000255,-0.005315,-0.000092,  35.103
  1070.0,0.000177,0.000258,-0.005296,-0.000092,  35.101
  1071.0,0.000197,0.000255,-0.005149,-0.000092,  35.101
  1072.0,0.000192,0.000270,-0.005137,-0.000092,  35.099
  1073.0,0.000176,0.000260,-0.005222,-0.000065,  35.097
  1074.0,0.000177,0.000254,-0.005488,-0.000065,  35.098
  1075.0,0.000177,0.000259,-0.005340,-0.000078,  35.090
  1076.0,0.000182,0.000259,-0.005263,-0.000065,  35.096
  1077.0,0.000182,0.000264,-0.005173,-0.000065,  35.092
  1078.0,0.000179,0.000264,-0.005949,-0.000078,  35.095
  1079.0,0.000174,0.000255,-0.005926,-0.000065,  35.096
  1080.0,0.000185,0.000260,-0.005591,-0.000128,  35.100
  1081.0,0.000187,0.000261,-0.005373,-0.000128,  35.103
  1082.0,0.000190,0.000268,-0.005235,-0.000101,  35.105
  1083.0,0.000193,0.000273,-0.005372,-0.000128,  35.107
  1084.0,0.000186,0.000279,-0.005529,-0.000128,  35.109
  1085.0,0.000187,0.000264,-0.005725,-0.000114,  35.111
  1086.0,0.000185,0.000267,-0.005527,-0.000128,  35.116
  1087.0,0.000174,0.000264,-0.005438,-0.000128,  35.114
  1088.0,0.000174,0.000255,-0.005252,-0.000128,  35.106
  1089.0,0.000171,0.000250,-0.005379,-0.000128,  35.111
  1090.0,0.000160,0.000253,-0.005373,-0.000114,  35.107
  1091.0,0.000170,0.000250,-0.005379,-0.000105,  35.114
  1092.0,0.000168,0.000249,-0.005406,-0.000092,  35.113
  1093.0,0.000182,0.000259,-0.005559,-0.000092,  35.119
  1094.0,0.000171,0.000259,-0.005318,-0.000092,  35.116
  1095.0,0.000165,0.000260,-0.005245,-0.000092,  35.120
  1096.0,0.000171,0.000264,-0.005233,-0.000078,  35.124
  1097.0,0.000173,0.000268,-0.005354,-0.000092,  35.129
  1098.0,0.000182,0.000260,-0.005290,-0.000065,  35.135
  1099.0,0.000191,0.000263,-0.005754,-0.000092,  35.132
  1100.0,0.000191,0.000258,-0.005607,-0.000065,  35.136
  1101.0,0.000177,0.000267,-0.005463,-0.000065,  35.137
  1102.0,0.000171,0.000263,-0.005383,-0.000078,  35.133
  1103.0,0.000179,0.000272,-0.005332,-0.000065,  35.136
  1104.0,0.000182,0.000269,-0.005560,-0.000065,  35.136
  1105.0,0.000185,0.000276,-0.005357,-0.000065,  35.134
  1106.0,0.000191,0.000276,-0.005435,-0.000065,  35.131
  1107.0,0.000193,0.000284,-0.005324,-0.000092,  35.123
  1108.0,0.000196,0.000288,-0.005352,-0.000092,  35.130
  1109.0,0.000193,0.000279,-0.005396,-0.000078,  35.121
  1110.0,0.000196,0.000281,-0.005396,-0.000092,  35.118
  1111.0,0.000200,0.000263,-0.006836,-0.000092,  35.112
  1112.0,0.000203,0.000277,-0.005805,-0.000136,  35.107
  1113.0,0.000194,0.000280,-0.005607,-0.000114,  35.106
  1114.0,0.000185,0.000268,-0.006675,-0.000114,  35.102
  1115.0,0.000178,0.000260,-0.005879,-0.000128,  35.102
  1116.0,0.000189,0.000264,-0.006014,-0.000128,  35.102
  1117.0,0.000178,0.000261,-0.005654,-0.000114,  35.101
  1118.0,0.000186,0.000270,-0.005744,-0.000114,  35.101
  1119.0,0.000178,0.000262,-0.005774,-0.000101,  35.098
  1120.0,0.000175,0.000262,-0.006203,-0.000101,  35.098
  1121.0,0.000179,0.000259,-0.005839,-0.000128,  35.096
  1122.0,0.000175,0.000261,-0.005648,-0.000128,  35.099
  1123.0,0.000180,0.000266,-0.005734,-0.000128,  35.100
  1124.0,0.000183,0.000265,-0.005540,-0.000128,  35.101
  1125.0,0.000185,0.000271,-0.005543,-0.000114,  35.104
  1126.0,0.000185,0.000269,-0.005666,-0.000128,  35.108
  1127.0,0.000188,0.000266,-0.006068,-0.000128,  35.113
  1128.0,0.000188,0.000268,-0.005830,-0.000114,  35.120
  1129.0,0.000197,0.000270,-0.005548,-0.000114,  35.114
  1130.0,0.000196,0.000282,-0.006120,-0.000114,  35.123
  1131.0,0.000201,0.000280,-0.005754,-0.000128,  35.125
  1132.0,0.000188,0.000279,-0.005795,-0.000163,  35.118
  1133.0,0.000193,0.000288,-0.006060,-0.000114,  35.124
  1134.0,0.000188,0.000282,-0.005815,-0.000114,  35.119
  1135.0,0.000183,0.000271,-0.005545,-0.000078,  35.120
  1136.0,0.000180,0.000265,-0.005572,-0.000078,  35.112
  1137.0,0.000185,0.000268,-0.005559,-0.000105,  35.114
  1138.0,0.000185,0.000273,-0.005467,-0.000105,  35.107
  1139.0,0.000183,0.000272,-0.005657,-0.000092,  35.106
  1140.0,0.000186,0.000275,-0.006501,-0.000070,  35.100
  1141.0,0.000191,0.000272,-0.006380,-0.000092,  35.096
  1142.0,0.000189,0.000271,-0.006078,-0.000092,  35.099
  1143.0,0.000186,0.000272,-0.005913,-0.000092,  35.094
  1144.0,0.000189,0.000280,-0.005718,-0.000078,  35.095
  1145.0,0.000194,0.000290,-0.005834,-0.000092,  35.088
  1146.0,0.000180,0.000274,-0.005782,-0.000092,  35.090
  1147.0,0.000184,0.000263,-0.005713,-0.000114,  35.090
  1148.0,0.000181,0.000262,-0.006649,-0.000101,  35.095
  1149.0,0.000181,0.000261,-0.006350,-0.000101,  35.094
  1150.0,0.000179,0.000262,-0.006123,-0.000101,  35.096
  1151.0,0.000187,0.000265,-0.005839,-0.000056,  35.102
  1152.0,0.000186,0.000275,-0.005753,-0.000065,  35.101
  1153.0,0.000180,0.000271,-0.005823,-0.000092,  35.099
  1154.0,0.000178,0.000268,-0.006306,-0.000065,  35.108
  1155.0,0.000185,0.000276,-0.005873,-0.000065,  35.106
  1156.0,0.000189,0.000280,-0.005847,-0.000105,  35.111
  1157.0,0.000185,0.000272,-0.005707,-0.000078,  35.107
  1158.0,0.000191,0.000279,-0.006476,-0.000078,  35.113
  1159.0,0.000194,0.000279,-0.005983,-0.000065,  35.118
  1160.0,0.000180,0.000273,-0.005802,-0.000065,  35.121
  1161.0,0.000187,0.000268,-0.006110,-0.000078,  35.123
  1162.0,0.000181,0.000268,-0.006267,-0.000065,  35.127
  1163.0,0.000171,0.000259,-0.006070,-0.000065,  35.127
  1164.0,0.000190,0.000268,-0.005954,-0.000078,  35.128
  1165.0,0.000185,0.000264,-0.005930,-0.000065,  35.134
  1166.0,0.000182,0.000266,-0.005985,-0.000078,  35.137
  1167.0,0.000179,0.000261,-0.005962,-0.000065,  35.137
  1168.0,0.000190,0.000263,-0.006046,-0.000065,  35.137
  1169.0,0.000195,0.000265,-0.005917,-0.000078,  35.138
  1170.0,0.000175,0.000251,-0.006191,-0.000065,  35.141
  1171.0,0.000177,0.000267,-0.006506,-0.000065,  35.143
  1172.0,0.000176,0.000272,-0.007151,-0.000065,  35.142
  1173.0,0.000178,0.000262,-0.006214,-0.000065,  35.143
  1174.0,0.000189,0.000270,-0.005922,-0.000065,  35.143
  1175.0,0.000189,0.000275,-0.005824,-0.000065,  35.138
  1176.0,0.000191,0.000271,-0.005811,-0.000065,  35.135
  1177.0,0.000199,0.000278,-0.006170,-0.000092,  35.136
  1178.0,0.000199,0.000285,-0.005940,-0.000119,  35.135
  1179.0,0.000194,0.000286,-0.005893,-0.000092,  35.132
  1180.0,0.000194,0.000280,-0.006035,-0.000070,  35.132
  1181.0,0.000189,0.000273,-0.005968,-0.000092,  35.128
  1182.0,0.000190,0.000269,-0.005935,-0.000092,  35.124
  1183.0,0.000171,0.000256,-0.005712,-0.000105,  35.124
  1184.0,0.000165,0.000254,-0.006483,-0.000078,  35.120
  1185.0,0.000169,0.000248,-0.006401,-0.000092,  35.116
  1186.0,0.000163,0.000250,-0.006243,-0.000092,  35.117
  1187.0,0.000155,0.000254,-0.006364,-0.000078,  35.110
  1188.0,0.000169,0.000258,-0.006074,-0.000105,  35.110
  1189.0,0.000173,0.000268,-0.005975,-0.000092,  35.108
  1190.0,0.000176,0.000251,-0.005928,-0.000092,  35.114
  1191.0,0.000173,0.000264,-0.005936,-0.000105,  35.113
  1192.0,0.000170,0.000265,-0.005982,-0.000092,  35.116
  1193.0,0.000171,0.000267,-0.005962,-0.000105,  35.121
  1194.0,0.000173,0.000267,-0.005987,-0.000092,  35.117
  1195.0,0.000170,0.000253,-0.006064,-0.000092,  35.123
  1196.0,0.000176,0.000258,-0.006031,-0.000092,  35.126
  1197.0,0.000178,0.000264,-0.007255,-0.000092,  35.124
  1198.0,0.000184,0.000270,-0.006809,-0.000078,  35.123
  1199.0,0.000173,0.000271,-0.006673,-0.000056,  35.122
  1200.0,0.000165,0.000261,-0.006475,-0.000092,  35.119
  1201.0,0.000176,0.000272,-0.006264,-0.000092,  35.120
  1202.0,0.000179,0.000266,-0.006702,-0.000092,  35.116
  1203.0,0.000179,0.000270,-0.006361,-0.000078,  35.114
  1204.0,0.000172,0.000267,-0.006212,-0.000092,  35.114
  1205.0,0.000177,0.000261,-0.006019,-0.000092,  35.112
  1206.0,0.000166,0.000266,-0.006076,-0.000078,  35.114
  1207.0,0.000169,0.000243,-0.006775,-0.000083,  35.104
  1208.0,0.000168,0.000245,-0.007453,-0.000092,  35.106
  1209.0,0.000166,0.000255,-0.007108,-0.000105,  35.109
  1210.0,0.000171,0.000253,-0.006944,-0.000105,  35.102
  1211.0,0.000166,0.000263,-0.006371,-0.000092,  35.104
  1212.0,0.000174,0.000263,-0.006152,-0.000092,  35.101
  1213.0,0.000169,0.000263,-0.006137,-0.000092,  35.106
  1214.0,0.000164,0.000253,-0.006086,-0.000105,  35.103
  1215.0,0.000166,0.000251,-0.006122,-0.000105,  35.104
  1216.0,0.000172,0.000257,-0.006140,-0.000092,  35.100
  1217.0,0.000173,0.000261,-0.006114,-0.000078,  35.104
  1218.0,0.000174,0.000262,-0.006120,-0.000092,  35.103
  1219.0,0.000169,0.000263,-0.006034,-0.000092,  35.107
  1220.0,0.000177,0.000259,-0.006113,-0.000092,  35.106
  1221.0,0.000179,0.000251,-0.006128,-0.000092,  35.107
  1222.0,0.000182,0.000263,-0.006158,-0.000092,  35.110
  1223.0,0.000184,0.000267,-0.006180,-0.000105,  35.101
  1224.0,0.000178,0.000276,-0.006213,-0.000092,  35.106
  1225.0,0.000181,0.000269,-0.007335,-0.000078,  35.100
  1226.0,0.000182,0.000267,-0.006545,-0.000105,  35.096
  1227.0,0.000182,0.000253,-0.006373,-0.000092,  35.094
  1228.0,0.000177,0.000261,-0.006566,-0.000105,  35.094
  1229.0,0.000174,0.000260,-0.006406,-0.000092,  35.097
  1230.0,0.000174,0.000273,-0.006284,-0.000078,  35.098
  1231.0,0.000169,0.000254,-0.006271,-0.000105,  35.100
  1232.0,0.000175,0.000263,-0.006897,-0.000092,  35.097
  1233.0,0.000183,0.000262,-0.006432,-0.000092,  35.102
  1234.0,0.000183,0.000268,-0.006246,-0.000105,  35.095
  1235.0,0.000176,0.000271,-0.006233,-0.000105,  35.094
  1236.0,0.000187,0.000275,-0.006266,-0.000092,  35.102
  1237.0,0.000178,0.000283,-0.006430,-0.000092,  35.098
  1238.0,0.000180,0.000279,-0.006772,-0.000065,  35.098
  1239.0,0.000174,0.000267,-0.006338,-0.000078,  35.096
  1240.0,0.000175,0.000262,-0.006229,-0.000065,  35.095
  1241.0,0.000175,0.000266,-0.006281,-0.000065,  35.097
  1242.0,0.000184,0.000278,-0.006416,-0.000078,  35.099
  1243.0,0.000180,0.000270,-0.006211,-0.000078,  35.094
  1244.0,0.000179,0.000267,-0.006179,-0.000092,  35.095
  1245.0,0.000179,0.000279,-0.006223,-0.000070,  35.102
  1246.0,0.000187,0.000278,-0.006486,-0.000092,  35.095
  1247.0,0.000185,0.000275,-0.006676,-0.000070,  35.104
  1248.0,0.000185,0.000276,-0.006465,-0.000092,  35.103
  1249.0,0.000187,0.000270,-0.006310,-0.000078,  35.102
  1250.0,0.000185,0.000272,-0.006373,-0.000092,  35.111
  1251.0,0.000182,0.000265,-0.006448,-0.000092,  35.118
  1252.0,0.000166,0.000259,-0.007584,-0.000078,  35.113
  1253.0,0.000173,0.000260,-0.006756,-0.000092,  35.118
  1254.0,0.000175,0.000259,-0.006521,-0.000092,  35.119
  1255.0,0.000175,0.000259,-0.007794,-0.000078,  35.125
  1256.0,0.000178,0.000261,-0.006864,-0.000065,  35.125
  1257.0,0.000185,0.000264,-0.007154,-0.000065,  35.125
  1258.0,0.000185,0.000266,-0.006572,-0.000078,  35.122
  1259.0,0.000182,0.000257,-0.006383,-0.000065,  35.120
  1260.0,0.000182,0.000261,-0.006349,-0.000078,  35.119
  1261.0,0.000187,0.000265,-0.006491,-0.000092,  35.120
  1262.0,0.000190,0.000262,-0.006505,-0.000092,  35.118
  1263.0,0.000195,0.000274,-0.006540,-0.000078,  35.114
  1264.0,0.000195,0.000273,-0.006406,-0.000092,  35.113
  1265.0,0.000184,0.000269,-0.006460,-0.000078,  35.110
  1266.0,0.000173,0.000258,-0.006369,-0.000092,  35.102
  1267.0,0.000176,0.000254,-0.006433,-0.000092,  35.102
  1268.0,0.000170,0.000254,-0.006393,-0.000078,  35.099
  1269.0,0.000191,0.000258,-0.006406,-0.000092,  35.098
  1270.0,0.000183,0.000257,-0.006368,-0.000078,  35.101
  1271.0,0.000174,0.000264,-0.006297,-0.000065,  35.101
  1272.0,0.000174,0.000253,-0.006838,-0.000078,  35.105
  1273.0,0.000179,0.000259,-0.006378,-0.000065,  35.109
  1274.0,0.000181,0.000269,-0.006360,-0.000078,  35.106
  1275.0,0.000184,0.000269,-0.006444,-0.000065,  35.107
  1276.0,0.000189,0.000271,-0.007304,-0.000065,  35.108
  1277.0,0.000185,0.000274,-0.007519,-0.000078,  35.106
  1278.0,0.000191,0.000285,-0.007282,-0.000065,  35.112
  1279.0,0.000183,0.000278,-0.006794,-0.000065,  35.113
  1280.0,0.000184,0.000270,-0.006574,-0.000056,  35.113
  1281.0,0.000191,0.000274,-0.006552,-0.000092,  35.110
  1282.0,0.000196,0.000281,-0.006570,-0.000092,  35.111
  1283.0,0.000197,0.000282,-0.006478,-0.000092,  35.110
  1284.0,0.000195,0.000272,-0.006578,-0.000078,  35.108
  1285.0,0.000187,0.000266,-0.006505,-0.000092,  35.104
  1286.0,0.000176,0.000259,-0.006445,-0.000092,  35.104
  1287.0,0.000184,0.000263,-0.007020,-0.000078,  35.102
  1288.0,0.000173,0.000255,-0.006667,-0.000092,  35.099
  1289.0,0.000168,0.000260,-0.006534,-0.000065,  35.099
  1290.0,0.000177,0.000263,-0.006626,-0.000078,  35.100
  1291.0,0.000169,0.000268,-0.006626,-0.000065,  35.100
  1292.0,0.000168,0.000262,-0.006628,-0.000065,  35.101
  1293.0,0.000171,0.000259,-0.006509,-0.000078,  35.100
  1294.0,0.000181,0.000261,-0.006539,-0.000065,  35.109
  1295.0,0.000190,0.000267,-0.007920,-0.000065,  35.115
  1296.0,0.000185,0.000274,-0.007154,-0.000092,  35.115
  1297.0,0.000187,0.000270,-0.006832,-0.000092,  35.119
  1298.0,0.000177,0.000265,-0.006743,-0.000092,  35.125
  1299.0,0.000171,0.000262,-0.006628,-0.000105,  35.126
  1300.0,0.000171,0.000261,-0.006656,-0.000092,  35.128
  1301.0,0.000178,0.000259,-0.006586,-0.000092,  35.132
  1302.0,0.000167,0.000258,-0.006601,-0.000092,  35.123
  1303.0,0.000173,0.000270,-0.006596,-0.000078,  35.128
  1304.0,0.000166,0.000257,-0.006518,-0.000092,  35.132
  1305.0,0.000172,0.000252,-0.006476,-0.000065,  35.133
  1306.0,0.000179,0.000271,-0.006487,-0.000065,  35.133
  1307.0,0.000181,0.000276,-0.006473,-0.000114,  35.137
  1308.0,0.000175,0.000271,-0.006425,-0.000078,  35.132
  1309.0,0.000190,0.000278,-0.006527,-0.000092,  35.126
  1310.0,0.000192,0.000278,-0.006606,-0.000065,  35.125
  1311.0,0.000181,0.000271,-0.006895,-0.000065,  35.127
  1312.0,0.000185,0.000270,-0.006718,-0.000092,  35.120
  1313.0,0.000185,0.000276,-0.006700,-0.000078,  35.115
  1314.0,0.000187,0.000273,-0.006667,-0.000065,  35.109
  1315.0,0.000187,0.000270,-0.006667,-0.000078,  35.109
  1316.0,0.000183,0.000266,-0.007253,-0.000078,  35.113
  1317.0,0.000163,0.000253,-0.006834,-0.000056,  35.112
  1318.0,0.000169,0.000247,-0.006614,-0.000092,  35.116
  1319.0,0.000185,0.000258,-0.006772,-0.000092,  35.113
  1320.0,0.000185,0.000272,-0.007033,-0.000056,  35.116
  1321.0,0.000187,0.000266,-0.006929,-0.000078,  35.117
  1322.0,0.000192,0.000272,-0.006642,-0.000078,  35.113
  1323.0,0.000187,0.000267,-0.006570,-0.000056,  35.109
  1324.0,0.000185,0.000263,-0.006516,-0.000092,  35.115
  1325.0,0.000188,0.000267,-0.006514,-0.000092,  35.117
  1326.0,0.000187,0.000274,-0.006518,-0.000056,  35.113
  1327.0,0.000192,0.000277,-0.006550,-0.000078,  35.119
  1328.0,0.000190,0.000268,-0.006911,-0.000092,  35.111
  1329.0,0.000190,0.000273,-0.006778,-0.000065,  35.113
  1330.0,0.000192,0.000281,-0.007099,-0.000065,  35.111
  1331.0,0.000192,0.000277,-0.006743,-0.000078,  35.113
  1332.0,0.000192,0.000276,-0.006686,-0.000065,  35.112
  1333.0,0.000196,0.000268,-0.006646,-0.000065,  35.114
  1334.0,0.000182,0.000267,-0.006754,-0.000078,  35.114
  1335.0,0.000185,0.000266,-0.006908,-0.000078,  35.114
  1336.0,0.000196,0.000271,-0.006859,-0.000092,  35.116
  1337.0,0.000193,0.000279,-0.006762,-0.000092,  35.120
  1338.0,0.000185,0.000272,-0.007129,-0.000078,  35.121
  1339.0,0.000184,0.000278,-0.007109,-0.000078,  35.125
  1340.0,0.000179,0.000272,-0.007071,-0.000065,  35.126
  1341.0,0.000174,0.000254,-0.006823,-0.000065,  35.128
  1342.0,0.000190,0.000272,-0.007810,-0.000078,  35.125
  1343.0,0.000190,0.000275,-0.007484,-0.000065,  35.131
  1344.0,0.000198,0.000273,-0.007105,-0.000065,  35.129
  1345.0,0.000199,0.000272,-0.006928,-0.000078,  35.135
  1346.0,0.000187,0.000272,-0.006720,-0.000065,  35.144
  1347.0,0.000184,0.000275,-0.006810,-0.000092,  35.145
  1348.0,0.000186,0.000276,-0.007077,-0.000092,  35.148
  1349.0,0.000194,0.000282,-0.007786,-0.000078,  35.151
  1350.0,0.000189,0.000275,-0.007077,-0.000092,  35.155
  1351.0,0.000180,0.000279,-0.006853,-0.000092,  35.149
  1352.0,0.000179,0.000259,-0.006853,-0.000078,  35.156
  1353.0,0.000184,0.000271,-0.006871,-0.000078,  35.159
  1354.0,0.000186,0.000271,-0.006781,-0.000078,  35.173
  1355.0,0.000189,0.000275,-0.006905,-0.000078,  35.174
  1356.0,0.000189,0.000273,-0.006775,-0.000078,  35.180
  1357.0,0.000175,0.000264,-0.007416,-0.000078,  35.180
  1358.0,0.000179,0.000268,-0.006929,-0.000056,  35.176
  1359.0,0.000178,0.000274,-0.006782,-0.000092,  35.170
  1360.0,0.000186,0.000268,-0.006783,-0.000078,  35.173
  1361.0,0.000189,0.000277,-0.006775,-0.000078,  35.168
  1362.0,0.000183,0.000272,-0.006799,-0.000065,  35.171
  1363.0,0.000194,0.000276,-0.006824,-0.000092,  35.167
  1364.0,0.000184,0.000276,-0.007390,-0.000078,  35.166
  1365.0,0.000180,0.000265,-0.007036,-0.000065,  35.165
  1366.0,0.000186,0.000271,-0.007183,-0.000092,  35.166
  1367.0,0.000172,0.000268,-0.008600,-0.000092,  35.162
  1368.0,0.000170,0.000262,-0.007496,-0.000078,  35.147
  1369.0,0.000173,0.000258,-0.007076,-0.000092,  35.151
  1370.0,0.000184,0.000275,-0.007062,-0.000092,  35.149
  1371.0,0.000181,0.000275,-0.007003,-0.000092,  35.150
  1372.0,0.000176,0.000264,-0.007019,-0.000092,  35.144
  1373.0,0.000170,0.000250,-0.007092,-0.000078,  35.144
  1374.0,0.000179,0.000254,-0.006918,-0.000092,  35.136
  1375.0,0.000173,0.000255,-0.006987,-0.000092,  35.141
  1376.0,0.000166,0.000255,-0.006938,-0.000105,  35.145
  1377.0,0.000165,0.000252,-0.006913,-0.000056,  35.143
  1378.0,0.000165,0.000248,-0.006940,-0.000065,  35.143
  1379.0,0.000176,0.000261,-0.006992,-0.000065,  35.150
  1380.0,0.000165,0.000255,-0.006958,-0.000065,  35.154
  1381.0,0.000170,0.000253,-0.006992,-0.000065,  35.157
  1382.0,0.000179,0.000256,-0.006986,-0.000092,  35.164
  1383.0,0.000181,0.000260,-0.007066,-0.000092,  35.169
  1384.0,0.000176,0.000266,-0.007132,-0.000056,  35.173
  1385.0,0.000170,0.000267,-0.007005,-0.000043,  35.176
  1386.0,0.000177,0.000274,-0.006837,-0.000065,  35.177
  1387.0,0.000183,0.000268,-0.007534,-0.000065,  35.183
  1388.0,0.000191,0.000271,-0.007066,-0.000078,  35.184
  1389.0,0.000193,0.000267,-0.006947,-0.000078,  35.188
  1390.0,0.000187,0.000264,-0.006921,-0.000065,  35.183
  1391.0,0.000187,0.000270,-0.006856,-0.000065,  35.189
  1392.0,0.000196,0.000269,-0.006966,-0.000065,  35.189
  1393.0,0.000185,0.000273,-0.006880,-0.000065,  35.184
  1394.0,0.000190,0.000271,-0.006910,-0.000065,  35.185
  1395.0,0.000184,0.000280,-0.006886,-0.000065,  35.182
  1396.0,0.000182,0.000283,-0.006917,-0.000065,  35.175
  1397.0,0.000194,0.000276,-0.007093,-0.000065,  35.174
  1398.0,0.000188,0.000275,-0.006937,-0.000065,  35.168
  1399.0,0.000185,0.000275,-0.006956,-0.000065,  35.169
  1400.0,0.000191,0.000281,-0.006960,-0.000065,  35.169
  1401.0,0.000191,0.000275,-0.006849,-0.000043,  35.161
  1402.0,0.000186,0.000276,-0.006909,-0.000065,  35.161
  1403.0,0.000192,0.000277,-0.007104,-0.000065,  35.166
  1404.0,0.000192,0.000284,-0.007049,-0.000043,  35.152
  1405.0,0.000186,0.000273,-0.006909,-0.000065,  35.152
  1406.0,0.000194,0.000275,-0.007064,-0.000078,  35.153
  1407.0,0.000200,0.000274,-0.007035,-0.000065,  35.148
  1408.0,0.000200,0.000272,-0.007010,-0.000065,  35.153
  1409.0,0.000197,0.000276,-0.007020,-0.000078,  35.153
  1410.0,0.000182,0.000266,-0.007027,-0.000065,  35.151
  1411.0,0.000182,0.000264,-0.006927,-0.000065,  35.153
  1412.0,0.000174,0.000272,-0.007969,-0.000078,  35.156
  1413.0,0.000163,0.000267,-0.007339,-0.000065,  35.159
  1414.0,0.000177,0.000263,-0.007258,-0.000065,  35.159
  1415.0,0.000179,0.000259,-0.008286,-0.000065,  35.159
  1416.0,0.000170,0.000276,-0.007461,-0.000065,  35.154
  1417.0,0.000167,0.000266,-0.007290,-0.000078,  35.155
  1418.0,0.000168,0.000259,-0.007175,-0.000065,  35.149
  1419.0,0.000179,0.000263,-0.007480,-0.000065,  35.152
  1420.0,0.000173,0.000259,-0.007253,-0.000078,  35.152
  1421.0,0.000171,0.000272,-0.007054,-0.000065,  35.148
  1422.0,0.000182,0.000269,-0.006951,-0.000065,  35.148
  1423.0,0.000182,0.000271,-0.007416,-0.000078,  35.147
  1424.0,0.000193,0.000265,-0.007284,-0.000078,  35.141
  1425.0,0.000191,0.000274,-0.007037,-0.000056,  35.144
  1426.0,0.000186,0.000275,-0.007052,-0.000078,  35.133
  1427.0,0.000185,0.000276,-0.006967,-0.000065,  35.128
  1428.0,0.000190,0.000276,-0.006940,-0.000078,  35.123
  1429.0,0.000192,0.000266,-0.006985,-0.000065,  35.118
  1430.0,0.000192,0.000277,-0.006946,-0.000065,  35.114
  1431.0,0.000197,0.000278,-0.007074,-0.000065,  35.120
  1432.0,0.000193,0.000284,-0.007452,-0.000065,  35.121
  1433.0,0.000197,0.000284,-0.007814,-0.000065,  35.117
  1434.0,0.000194,0.000274,-0.007278,-0.000065,  35.116
  1435.0,0.000188,0.000276,-0.007054,-0.000065,  35.118
  1436.0,0.000190,0.000285,-0.006997,-0.000078,  35.119
  1437.0,0.000181,0.000281,-0.006918,-0.000065,  35.117
  1438.0,0.000187,0.000281,-0.006948,-0.000065,  35.116
  1439.0,0.000185,0.000275,-0.006943,-0.000078,  35.114
  1440.0,0.000178,0.000273,-0.007039,-0.000092,  35.111
  1441.0,0.000172,0.000277,-0.007057,-0.000092,  35.114
  1442.0,0.000181,0.000277,-0.006941,-0.000092,  35.116
  1443.0,0.000181,0.000274,-0.006878,-0.000078,  35.117
  1444.0,0.000178,0.000274,-0.007402,-0.000105,  35.119
  1445.0,0.000181,0.000286,-0.006992,-0.000092,  35.120
  1446.0,0.000185,0.000264,-0.006960,-0.000078,  35.127
  1447.0,0.000187,0.000271,-0.007037,-0.000092,  35.129
  1448.0,0.000196,0.000284,-0.006934,-0.000065,  35.130
  1449.0,0.000191,0.000280,-0.007038,-0.000065,  35.136
  1450.0,0.000191,0.000266,-0.006972,-0.000065,  35.142
  1451.0,0.000185,0.000267,-0.006933,-0.000065,  35.141
  1452.0,0.000179,0.000270,-0.007100,-0.000078,  35.140
  1453.0,0.000179,0.000274,-0.007192,-0.000065,  35.141
  1454.0,0.000182,0.000271,-0.007120,-0.000078,  35.149
  1455.0,0.000182,0.000274,-0.007147,-0.000078,  35.147
  1456.0,0.000176,0.000268,-0.006984,-0.000065,  35.150
  1457.0,0.000182,0.000276,-0.006994,-0.000065,  35.152
  1458.0,0.000179,0.000274,-0.007017,-0.000078,  35.153
  1459.0,0.000173,0.000270,-0.007032,-0.000078,  35.155
  1460.0,0.000177,0.000269,-0.007082,-0.000078,  35.156
  1461.0,0.000172,0.000273,-0.007003,-0.000078,  35.159
  1462.0,0.000166,0.000268,-0.007141,-0.000078,  35.167
  1463.0,0.000164,0.000261,-0.007598,-0.000092,  35.169
  1464.0,0.000163,0.000254,-0.007481,-0.000092,  35.173
  1465.0,0.000167,0.000258,-0.007232,-0.000078,  35.183
  1466.0,0.000165,0.000253,-0.007273,-0.000092,  35.187
  1467.0,0.000167,0.000256,-0.007306,-0.000105,  35.185
  1468.0,0.000165,0.000263,-0.007962,-0.000070,  35.181
  1469.0,0.000162,0.000254,-0.008049,-0.000092,  35.185
  1470.0,0.000165,0.000247,-0.007450,-0.000092,  35.184
  1471.0,0.000170,0.000267,-0.007843,-0.000105,  35.188
  1472.0,0.000170,0.000266,-0.007604,-0.000092,  35.188
  1473.0,0.000162,0.000264,-0.007914,-0.000092,  35.184
  1474.0,0.000174,0.000258,-0.008443,-0.000092,  35.188
  1475.0,0.000168,0.000254,-0.007523,-0.000078,  35.192
  1476.0,0.000171,0.000266,-0.007360,-0.000065,  35.187
  1477.0,0.000170,0.000261,-0.007336,-0.000065,  35.188
  1478.0,0.000172,0.000259,-0.007334,-0.000065,  35.192
  1479.0,0.000172,0.000259,-0.007212,-0.000078,  35.187
  1480.0,0.000175,0.000266,-0.007162,-0.000065,  35.186
  1481.0,0.000178,0.000267,-0.007614,-0.000065,  35.177
  1482.0,0.000178,0.000260,-0.007365,-0.000078,  35.175
  1483.0,0.000180,0.000260,-0.007138,-0.000065,  35.173
  1484.0,0.000184,0.000263,-0.007210,-0.000078,  35.170
  1485.0,0.000179,0.000267,-0.007808,-0.000092,  35.164
  1486.0,0.000172,0.000264,-0.007417,-0.000043,  35.154
  1487.0,0.000193,0.000271,-0.007310,-0.000070,  35.154
  1488.0,0.000191,0.000274,-0.007259,-0.000092,  35.150
  1489.0,0.000185,0.000264,-0.007209,-0.000078,  35.138
  1490.0,0.000185,0.000266,-0.008082,-0.000092,  35.132
  1491.0,0.000183,0.000253,-0.007891,-0.000065,  35.126
  1492.0,0.000174,0.000256,-0.007473,-0.000065,  35.115
  1493.0,0.000177,0.000255,-0.007233,-0.000092,  35.107
  1494.0,0.000177,0.000267,-0.007237,-0.000092,  35.093
  1495.0,0.000185,0.000272,-0.007319,-0.000092,  35.092
  1496.0,0.000185,0.000273,-0.007247,-0.000092,  35.083
  1497.0,0.000190,0.000286,-0.007355,-0.000078,  35.070
  1498.0,0.000179,0.000272,-0.008021,-0.000092,  35.066
  1499.0,0.000175,0.000262,-0.008670,-0.000092,  35.063
  1500.0,0.000178,0.000261,-0.009179,-0.000078,  35.058
  1501.0,0.000165,0.000255,-0.007872,-0.000092,  35.061
  1502.0,0.000161,0.000248,-0.007575,-0.000092,  35.054
  1503.0,0.000163,0.000246,-0.007430,-0.000078,  35.061
  1504.0,0.000176,0.000257,-0.007540,-0.000092,  35.065
  1505.0,0.000173,0.000251,-0.007436,-0.000078,  35.066
  1506.0,0.000178,0.000255,-0.007393,-0.000092,  35.074
  1507.0,0.000172,0.000257,-0.007439,-0.000136,  35.084
  1508.0,0.000177,0.000264,-0.007377,-0.000101,  35.098
  1509.0,0.000171,0.000274,-0.007384,-0.000101,  35.098
  1510.0,0.000165,0.000265,-0.007547,-0.000101,  35.107
  1511.0,0.000171,0.000261,-0.007342,-0.000029,  35.116
  1512.0,0.000179,0.000256,-0.007196,-0.000065,  35.135
  1513.0,0.000175,0.000261,-0.007295,-0.000065,  35.136
  1514.0,0.000180,0.000267,-0.007275,-0.000065,  35.145
  1515.0,0.000183,0.000272,-0.007361,-0.000065,  35.150
  1516.0,0.000179,0.000266,-0.007409,-0.000065,  35.163
  1517.0,0.000188,0.000278,-0.007240,-0.000078,  35.166
  1518.0,0.000196,0.000285,-0.007271,-0.000065,  35.176
  1519.0,0.000196,0.000287,-0.007106,-0.000065,  35.178
  1520.0,0.000185,0.000265,-0.007833,-0.000065,  35.195
  1521.0,0.000188,0.000267,-0.007699,-0.000065,  35.201
  1522.0,0.000191,0.000273,-0.007269,-0.000065,  35.205
  1523.0,0.000203,0.000283,-0.007265,-0.000065,  35.203
  1524.0,0.000189,0.000285,-0.007273,-0.000065,  35.208
  1525.0,0.000191,0.000286,-0.007291,-0.000065,  35.216
  1526.0,0.000185,0.000267,-0.007324,-0.000065,  35.219
  1527.0,0.000185,0.000268,-0.007188,-0.000065,  35.217
  1528.0,0.000185,0.000283,-0.007219,-0.000065,  35.228
  1529.0,0.000185,0.000278,-0.007219,-0.000065,  35.225
  1530.0,0.000185,0.000284,-0.007241,-0.000078,  35.212
  1531.0,0.000189,0.000274,-0.007315,-0.000065,  35.206
  1532.0,0.000185,0.000280,-0.007256,-0.000078,  35.197
  1533.0,0.000189,0.000284,-0.007415,-0.000092,  35.191
  1534.0,0.000175,0.000266,-0.009126,-0.000092,  35.196
  1535.0,0.000170,0.000268,-0.008298,-0.000078,  35.188
  1536.0,0.000167,0.000256,-0.007751,-0.000070,  35.187
  1537.0,0.000172,0.000254,-0.007520,-0.000092,  35.183
  1538.0,0.000171,0.000255,-0.007464,-0.000065,  35.177
  1539.0,0.000171,0.000255,-0.008043,-0.000065,  35.173
  1540.0,0.000164,0.000248,-0.007574,-0.000078,  35.173
  1541.0,0.000160,0.000249,-0.007491,-0.000092,  35.156
  1542.0,0.000166,0.000249,-0.007682,-0.000092,  35.152
  1543.0,0.000170,0.000256,-0.008272,-0.000078,  35.147
  1544.0,0.000170,0.000259,-0.007676,-0.000092,  35.140
  1545.0,0.000172,0.000271,-0.007478,-0.000092,  35.141
  1546.0,0.000168,0.000262,-0.007980,-0.000092,  35.143
  1547.0,0.000160,0.000261,-0.007681,-0.000105,  35.140
  1548.0,0.000162,0.000256,-0.007511,-0.000092,  35.134
  1549.0,0.000167,0.000255,-0.007409,-0.000092,  35.138
  1550.0,0.000167,0.000251,-0.007510,-0.000092,  35.130
  1551.0,0.000162,0.000246,-0.007606,-0.000078,  35.133
  1552.0,0.000165,0.000254,-0.007706,-0.000092,  35.136
  1553.0,0.000167,0.000257,-0.007647,-0.000092,  35.139
  1554.0,0.000170,0.000255,-0.007566,-0.000078,  35.141
  1555.0,0.000170,0.000261,-0.007538,-0.000092,  35.139
  1556.0,0.000161,0.000257,-0.007597,-0.000092,  35.142
  1557.0,0.000160,0.000254,-0.007879,-0.000119,  35.146
  1558.0,0.000157,0.000253,-0.007582,-0.000119,  35.148
  1559.0,0.000154,0.000241,-0.007556,-0.000092,  35.148
  1560.0,0.000152,0.000247,-0.007494,-0.000105,  35.146
  1561.0,0.000147,0.000244,-0.007488,-0.000092,  35.147
  1562.0,0.000150,0.000238,-0.007787,-0.000092,  35.150
  1563.0,0.000148,0.000242,-0.007628,-0.000083,  35.149
  1564.0,0.000152,0.000246,-0.007397,-0.000070,  35.152
  1565.0,0.000160,0.000245,-0.007386,-0.000105,  35.146
  1566.0,0.000155,0.000242,-0.007480,-0.000119,  35.150
  1567.0,0.000153,0.000245,-0.007473,-0.000092,  35.151
  1568.0,0.000150,0.000246,-0.007892,-0.000070,  35.145
  1569.0,0.000155,0.000249,-0.007562,-0.000092,  35.140
  1570.0,0.000159,0.000256,-0.008732,-0.000092,  35.136
  1571.0,0.000154,0.000245,-0.007973,-0.000070,  35.135
  1572.0,0.000151,0.000237,-0.007742,-0.000092,  35.126
  1573.0,0.000164,0.000241,-0.007435,-0.000092,  35.124
  1574.0,0.000166,0.000250,-0.007520,-0.000070,  35.122
  1575.0,0.000160,0.000258,-0.007454,-0.000092,  35.117
  1576.0,0.000169,0.000252,-0.007452,-0.000070,  35.121
  1577.0,0.000169,0.000250,-0.007485,-0.000119,  35.111
  1578.0,0.000172,0.000258,-0.007349,-0.000105,  35.102
  1579.0,0.000166,0.000257,-0.007495,-0.000083,  35.096
  1580.0,0.000161,0.000253,-0.007478,-0.000119,  35.092
  1581.0,0.000153,0.000249,-0.007490,-0.000119,  35.087
  1582.0,0.000150,0.000240,-0.007492,-0.000083,  35.086
  1583.0,0.000147,0.000243,-0.007438,-0.000083,  35.080
  1584.0,0.000158,0.000242,-0.007567,-0.000083,  35.079
  1585.0,0.000158,0.000247,-0.007593,-0.000119,  35.085
  1586.0,0.000158,0.000250,-0.007651,-0.000097,  35.084
  1587.0,0.000155,0.000243,-0.007608,-0.000048,  35.089
  1588.0,0.000152,0.000245,-0.007454,-0.000056,  35.084
  1589.0,0.000166,0.000266,-0.007405,-0.000092,  35.083
  1590.0,0.000160,0.000256,-0.007409,-0.000070,  35.084
  1591.0,0.000165,0.000264,-0.007471,-0.000119,  35.084
  1592.0,0.000173,0.000268,-0.007923,-0.000083,  35.077
  1593.0,0.000181,0.000269,-0.007753,-0.000092,  35.083
  1594.0,0.000183,0.000267,-0.007635,-0.000092,  35.079
  1595.0,0.000181,0.000268,-0.007888,-0.000056,  35.081
  1596.0,0.000175,0.000272,-0.007627,-0.000092,  35.083
  1597.0,0.000179,0.000268,-0.007408,-0.000078,  35.081
  1598.0,0.000186,0.000276,-0.007377,-0.000070,  35.083
  1599.0,0.000183,0.000273,-0.007436,-0.000092,  35.086
  1600.0,0.000183,0.000276,-0.007441,-0.000078,  35.086
  1601.0,0.000186,0.000281,-0.007784,-0.000092,  35.088
  1602.0,0.000178,0.000278,-0.007508,-0.000092,  35.085
  1603.0,0.000175,0.000275,-0.007450,-0.000070,  35.082
  1604.0,0.000172,0.000268,-0.007455,-0.000092,  35.077
  1605.0,0.000172,0.000270,-0.008645,-0.000092,  35.080
  1606.0,0.000167,0.000272,-0.008201,-0.000070,  35.081
  1607.0,0.000160,0.000263,-0.007780,-0.000092,  35.079
  1608.0,0.000162,0.000255,-0.007888,-0.000092,  35.079
  1609.0,0.000171,0.000268,-0.007510,-0.000070,  35.078
  1610.0,0.000165,0.000262,-0.007453,-0.000092,  35.083
  1611.0,0.000178,0.000262,-0.007827,-0.000105,  35.083
  1612.0,0.000176,0.000257,-0.007599,-0.000092,  35.091
  1613.0,0.000166,0.000253,-0.007415,-0.000092,  35.093
  1614.0,0.000169,0.000253,-0.007934,-0.000105,  35.096
  1615.0,0.000170,0.000252,-0.007675,-0.000119,  35.101
  1616.0,0.000176,0.000267,-0.007502,-0.000105,  35.105
  1617.0,0.000179,0.000270,-0.008001,-0.000083,  35.104
  1618.0,0.000170,0.000264,-0.008816,-0.000092,  35.110
  1619.0,0.000160,0.000258,-0.008657,-0.000083,  35.112
  1620.0,0.000154,0.000245,-0.008041,-0.000105,  35.114
  1621.0,0.000148,0.000237,-0.007826,-0.000092,  35.119
  1622.0,0.000154,0.000239,-0.008055,-0.000070,  35.119
  1623.0,0.000154,0.000236,-0.007795,-0.000105,  35.116
  1624.0,0.000144,0.000225,-0.007694,-0.000097,  35.122
  1625.0,0.000152,0.000237,-0.007540,-0.000048,  35.126
  1626.0,0.000150,0.000238,-0.008064,-0.000119,  35.127
  1627.0,0.000156,0.000247,-0.007714,-0.000070,  35.136
  1628.0,0.000161,0.000244,-0.007683,-0.000092,  35.136
  1629.0,0.000160,0.000252,-0.007656,-0.000092,  35.138
  1630.0,0.000167,0.000248,-0.007612,-0.000070,  35.138
  1631.0,0.000160,0.000244,-0.007469,-0.000105,  35.142
  1632.0,0.000160,0.000251,-0.007497,-0.000092,  35.140
  1633.0,0.000166,0.000246,-0.007529,-0.000070,  35.137
  1634.0,0.000165,0.000258,-0.007659,-0.000092,  35.141
  1635.0,0.000167,0.000254,-0.007498,-0.000092,  35.139
  1636.0,0.000160,0.000257,-0.008084,-0.000070,  35.139
  1637.0,0.000167,0.000253,-0.008360,-0.000092,  35.138
  1638.0,0.000167,0.000265,-0.007845,-0.000070,  35.138
  1639.0,0.000170,0.000260,-0.007571,-0.000119,  35.138
  1640.0,0.000170,0.000261,-0.007647,-0.000105,  35.138
  1641.0,0.000176,0.000264,-0.008080,-0.000083,  35.139
  1642.0,0.000172,0.000263,-0.007831,-0.000119,  35.135
  1643.0,0.000172,0.000250,-0.007536,-0.000105,  35.136
  1644.0,0.000177,0.000264,-0.007546,-0.000083,  35.130
  1645.0,0.000167,0.000263,-0.008707,-0.000092,  35.128
  1646.0,0.000171,0.000263,-0.008300,-0.000070,  35.131
  1647.0,0.000173,0.000263,-0.007895,-0.000092,  35.131
  1648.0,0.000170,0.000256,-0.007638,-0.000078,  35.127
  1649.0,0.000173,0.000267,-0.007815,-0.000056,  35.131
  1650.0,0.000170,0.000255,-0.007727,-0.000092,  35.126
  1651.0,0.000179,0.000261,-0.007612,-0.000078,  35.129
  1652.0,0.000176,0.000274,-0.007621,-0.000056,  35.131
  1653.0,0.000162,0.000263,-0.007575,-0.000078,  35.126
  1654.0,0.000172,0.000266,-0.007535,-0.000043,  35.129
  1655.0,0.000180,0.000267,-0.007553,-0.000065,  35.127
  1656.0,0.000180,0.000268,-0.007594,-0.000065,  35.129
  1657.0,0.000182,0.000273,-0.007611,-0.000070,  35.128
  1658.0,0.000181,0.000275,-0.008513,-0.000092,  35.125
  1659.0,0.000181,0.000274,-0.008161,-0.000078,  35.128
  1660.0,0.000179,0.000271,-0.007780,-0.000070,  35.126
  1661.0,0.000180,0.000268,-0.008417,-0.000092,  35.128
  1662.0,0.000180,0.000269,-0.007947,-0.000065,  35.124
  1663.0,0.000175,0.000269,-0.007756,-0.000078,  35.125
  1664.0,0.000166,0.000268,-0.007672,-0.000092,  35.130
  1665.0,0.000174,0.000280,-0.007550,-0.000048,  35.131
  1666.0,0.000172,0.000274,-0.007544,-0.000092,  35.129
  1667.0,0.000169,0.000275,-0.007572,-0.000092,  35.134
  1668.0,0.000176,0.000275,-0.007709,-0.000078,  35.136
  1669.0,0.000175,0.000266,-0.007926,-0.000078,  35.137
  1670.0,0.000181,0.000265,-0.008816,-0.000078,  35.134
  1671.0,0.000172,0.000266,-0.008061,-0.000092,  35.133
  1672.0,0.000172,0.000266,-0.008063,-0.000092,  35.134
  1673.0,0.000178,0.000270,-0.007662,-0.000092,  35.130
  1674.0,0.000178,0.000269,-0.008338,-0.000092,  35.132
  1675.0,0.000180,0.000272,-0.007758,-0.000078,  35.133
  1676.0,0.000174,0.000267,-0.007645,-0.000092,  35.132
  1677.0,0.000173,0.000273,-0.007554,-0.000092,  35.132
  1678.0,0.000177,0.000269,-0.007608,-0.000092,  35.131
  1679.0,0.000172,0.000259,-0.007622,-0.000097,  35.132
  1680.0,0.000166,0.000267,-0.007764,-0.000119,  35.132
  1681.0,0.000167,0.000260,-0.007662,-0.000092,  35.131
  1682.0,0.000157,0.000251,-0.009063,-0.000119,  35.137
  1683.0,0.000156,0.000244,-0.008749,-0.000092,  35.136
  1684.0,0.000159,0.000247,-0.008008,-0.000070,  35.133
  1685.0,0.000159,0.000246,-0.007805,-0.000092,  35.134
  1686.0,0.000159,0.000242,-0.007732,-0.000078,  35.137
  1687.0,0.000159,0.000248,-0.008196,-0.000070,  35.131
  1688.0,0.000150,0.000248,-0.007853,-0.000092,  35.136
  1689.0,0.000148,0.000242,-0.007810,-0.000092,  35.139
  1690.0,0.000148,0.000245,-0.008535,-0.000070,  35.139
  1691.0,0.000151,0.000252,-0.008131,-0.000056,  35.140
  1692.0,0.000154,0.000247,-0.007857,-0.000056,  35.139
  1693.0,0.000155,0.000240,-0.007972,-0.000092,  35.143
  1694.0,0.000157,0.000246,-0.007989,-0.000092,  35.141
  1695.0,0.000147,0.000244,-0.007768,-0.000070,  35.139
  1696.0,0.000150,0.000243,-0.007744,-0.000092,  35.135
  1697.0,0.000161,0.000245,-0.008246,-0.000092,  35.136
  1698.0,0.000170,0.000254,-0.008312,-0.000083,  35.133
  1699.0,0.000154,0.000247,-0.008025,-0.000092,  35.134
  1700.0,0.000165,0.000248,-0.008421,-0.000070,  35.130
  1701.0,0.000175,0.000248,-0.007918,-0.000092,  35.133
  1702.0,0.000175,0.000261,-0.008397,-0.000105,  35.131
  1703.0,0.000172,0.000277,-0.008441,-0.000083,  35.130
  1704.0,0.000158,0.000261,-0.007935,-0.000105,  35.124
  1705.0,0.000164,0.000257,-0.008870,-0.000092,  35.127
  1706.0,0.000170,0.000259,-0.008115,-0.000070,  35.130
  1707.0,0.000166,0.000253,-0.007763,-0.000092,  35.114
  1708.0,0.000159,0.000258,-0.007770,-0.000078,  35.112
  1709.0,0.000157,0.000254,-0.007785,-0.000105,  35.111
  1710.0,0.000157,0.000251,-0.007677,-0.000092,  35.107
  1711.0,0.000157,0.000247,-0.007695,-0.000105,  35.106
  1712.0,0.000162,0.000249,-0.007688,-0.000092,  35.108
  1713.0,0.000162,0.000248,-0.007765,-0.000092,  35.106
  1714.0,0.000162,0.000251,-0.007659,-0.000105,  35.112
  1715.0,0.000162,0.000257,-0.007717,-0.000092,  35.110
  1716.0,0.000162,0.000260,-0.007723,-0.000092,  35.113
  1717.0,0.000157,0.000249,-0.008103,-0.000070,  35.110
  1718.0,0.000160,0.000257,-0.007805,-0.000092,  35.108
  1719.0,0.000166,0.000256,-0.007957,-0.000070,  35.109
  1720.0,0.000163,0.000248,-0.007971,-0.000092,  35.106
  1721.0,0.000153,0.000243,-0.007795,-0.000092,  35.105
  1722.0,0.000153,0.000245,-0.007639,-0.000083,  35.106
  1723.0,0.000160,0.000246,-0.007667,-0.000119,  35.102
  1724.0,0.000163,0.000251,-0.007562,-0.000119,  35.103
  1725.0,0.000154,0.000249,-0.008053,-0.000048,  35.108
  1726.0,0.000157,0.000253,-0.007964,-0.000070,  35.105
  1727.0,0.000171,0.000256,-0.007703,-0.000070,  35.101
  1728.0,0.000166,0.000254,-0.007827,-0.000092,  35.104
  1729.0,0.000165,0.000259,-0.007719,-0.000092,  35.104
  1730.0,0.000173,0.000257,-0.008147,-0.000070,  35.110
  1731.0,0.000170,0.000261,-0.007893,-0.000092,  35.114
  1732.0,0.000180,0.000254,-0.007735,-0.000078,  35.114
  1733.0,0.000169,0.000254,-0.007657,-0.000056,  35.130
  1734.0,0.000171,0.000259,-0.007667,-0.000092,  35.136
  1735.0,0.000174,0.000261,-0.007700,-0.000056,  35.135
  1736.0,0.000172,0.000265,-0.007691,-0.000092,  35.129
  1737.0,0.000168,0.000263,-0.007815,-0.000078,  35.134
  1738.0,0.000172,0.000263,-0.007757,-0.000092,  35.135
  1739.0,0.000169,0.000260,-0.007779,-0.000092,  35.132
  1740.0,0.000161,0.000252,-0.008291,-0.000078,  35.132
  1741.0,0.000170,0.000260,-0.009324,-0.000092,  35.132
  1742.0,0.000174,0.000260,-0.008591,-0.000092,  35.136
  1743.0,0.000165,0.000272,-0.008052,-0.000105,  35.130
  1744.0,0.000174,0.000271,-0.007771,-0.000070,  35.134
  1745.0,0.000166,0.000265,-0.007623,-0.000092,  35.124
  1746.0,0.000165,0.000258,-0.007594,-0.000105,  35.130
  1747.0,0.000165,0.000260,-0.007799,-0.000092,  35.123
  1748.0,0.000160,0.000259,-0.008771,-0.000105,  35.109
  1749.0,0.000170,0.000259,-0.008072,-0.000119,  35.105
  1750.0,0.000175,0.000263,-0.008063,-0.000119,  35.106
  1751.0,0.000169,0.000264,-0.007775,-0.000105,  35.104
  1752.0,0.000169,0.000268,-0.007793,-0.000119,  35.106
  1753.0,0.000165,0.000263,-0.007828,-0.000119,  35.109
  1754.0,0.000150,0.000254,-0.007824,-0.000083,  35.108
  1755.0,0.000153,0.000253,-0.007793,-0.000119,  35.119
  1756.0,0.000147,0.000254,-0.007726,-0.000092,  35.119
  1757.0,0.000154,0.000260,-0.007809,-0.000105,  35.120
  1758.0,0.000155,0.000245,-0.008313,-0.000092,  35.132
  1759.0,0.000147,0.000245,-0.008177,-0.000119,  35.130
  1760.0,0.000155,0.000247,-0.008950,-0.000119,  35.132
  1761.0,0.000141,0.000245,-0.008145,-0.000105,  35.130
  1762.0,0.000147,0.000251,-0.008587,-0.000092,  35.135
  1763.0,0.000142,0.000246,-0.008440,-0.000105,  35.129
  1764.0,0.000135,0.000246,-0.008213,-0.000105,  35.125
  1765.0,0.000138,0.000247,-0.008775,-0.000083,  35.125
  1766.0,0.000149,0.000241,-0.008128,-0.000119,  35.112
  1767.0,0.000152,0.000256,-0.007853,-0.000105,  35.107
  1768.0,0.000169,0.000250,-0.007860,-0.000083,  35.110
  1769.0,0.000158,0.000254,-0.007847,-0.000119,  35.104
  1770.0,0.000152,0.000249,-0.007849,-0.000119,  35.106
  1771.0,0.000153,0.000249,-0.007685,-0.000083,  35.103
  1772.0,0.000158,0.000243,-0.007756,-0.000083,  35.101
  1773.0,0.000149,0.000250,-0.007673,-0.000083,  35.095
  1774.0,0.000150,0.000250,-0.007624,-0.000105,  35.099
  1775.0,0.000147,0.000248,-0.007659,-0.000105,  35.092
  1776.0,0.000150,0.000259,-0.007746,-0.000097,  35.094
  1777.0,0.000160,0.000257,-0.007816,-0.000119,  35.093
  1778.0,0.000166,0.000260,-0.007739,-0.000119,  35.089
  1779.0,0.000160,0.000259,-0.007777,-0.000097,  35.087
  1780.0,0.000150,0.000248,-0.007841,-0.000119,  35.092
  1781.0,0.000139,0.000237,-0.007771,-0.000061,  35.094
  1782.0,0.000142,0.000235,-0.007789,-0.000119,  35.098
  1783.0,0.000145,0.000241,-0.007810,-0.000105,  35.103
