Run Name,DoomDJ
Run Date,02:06:20 PM   03-17-08
Method Name,50%B-Isocratic
Export Format Version, 1.00
Method ID,  427
Points/Second, 5.00
Number of Records,   1800
Offset from Run Start Time,00:00:00
Run End Time,00:06:00
Time,Second
QuadTec 1, (280.0 nm), AU
QuadTec 2, (260.0 nm), AU
Gradient Pump,<Not Selected>
QuadTec 3, (214.0 nm), AU
QuadTec 4, (405.0 nm), AU
Conductivity,mS/cm
Trace 6,<Not Available>
GP Pressure,<Not Selected>
Volume,<Not Selected>
Fraction,<Not Available>
Time,QuadTec 1,QuadTec 2,QuadTec 3,QuadTec 4,Conductivity
     0.0,0.001627,0.001009,-0.011920,0.002531,  48.494
     0.2,0.001731,0.001008,-0.011887,0.002545,  48.492
     0.4,0.001755,0.001012,-0.011879,0.002545,  48.493
     0.6,0.001762,0.001013,-0.011887,0.002517,  48.490
     0.8,0.000000,0.001015,-0.011867,0.002503,  48.496
     1.0,0.000000,0.001013,-0.011850,0.002503,  48.500
     1.2,0.000000,0.000860,-0.011818,0.002503,  48.493
     1.4,0.000000,0.000860,-0.011790,0.002489,  48.493
     1.6,0.000000,0.000863,-0.011766,0.002489,  48.491
     1.8,0.000000,0.000863,-0.011741,0.002503,  48.488
     2.0,0.000000,0.000863,-0.011733,0.002503,  48.484
     2.2,0.000000,0.000000,-0.011730,0.002503,  48.482
     2.4,0.000000,0.000000,-0.012062,0.002489,  48.482
     2.6,0.000000,0.000000,-0.012062,0.002489,  48.479
     2.8,0.000000,0.000000,-0.012062,0.002510,  48.477
     3.0,0.000000,0.000000,-0.012062,0.002502,  48.472
     3.2,0.000000,0.000000,0.000000,0.002250,  48.472
     3.4,0.000000,0.000000,0.000000,0.000000,  48.466
     3.6,0.000000,0.000000,0.000000,0.000000,  48.471
     3.8,0.000000,0.000000,0.000000,0.000000,  48.466
     4.0,0.000000,0.000000,0.000000,0.000000,  48.460
     4.2,0.000000,0.000000,0.000000,0.000000,  48.462
     4.4,-0.000005,0.000000,0.000000,0.000000,  48.453
     4.6,-0.000009,0.000000,0.000000,0.000000,  48.437
     4.8,-0.000011,0.000000,0.000000,0.000000,  48.428
     5.0,-0.000026,0.000000,0.000000,0.000000,  48.424
     5.2,-0.000035,0.000000,0.000000,0.000000,  48.430
     5.4,-0.000051,0.000000,0.000000,0.000000,  48.428
     5.6,-0.000059,0.000000,0.000000,0.000000,  48.429
     5.8,-0.000051,-0.000019,0.000000,0.000000,  48.439
     6.0,-0.000049,-0.000025,0.000000,0.000000,  48.429
     6.2,-0.000052,-0.000030,0.000000,0.000000,  48.420
     6.4,-0.000042,-0.000035,0.000000,0.000000,  48.412
     6.6,-0.000037,-0.000042,0.000000,0.000000,  48.403
     6.8,-0.000038,-0.000050,0.000000,0.000000,  48.404
     7.0,-0.000030,-0.000057,0.000070,0.000000,  48.400
     7.2,-0.000028,-0.000061,0.000077,0.000000,  48.400
     7.4,-0.000025,-0.000057,0.000072,0.000000,  48.397
     7.6,-0.000023,-0.000051,0.000055,0.000000,  48.390
     7.8,-0.000022,-0.000047,0.000022,0.000028,  48.391
     8.0,-0.000022,-0.000048,-0.000031,0.000014,  48.386
     8.2,-0.000025,-0.000044,-0.000093,-0.000035,  48.382
     8.4,-0.000022,-0.000041,-0.000121,-0.000028,  48.380
     8.6,-0.000022,-0.000043,-0.000141,-0.000063,  48.380
     8.8,-0.000025,-0.000044,-0.000149,-0.000063,  48.375
     9.0,-0.000020,-0.000044,-0.000259,-0.000049,  48.373
     9.2,-0.000025,-0.000044,-0.000406,-0.000070,  48.367
     9.4,-0.000023,-0.000042,-0.000595,-0.000070,  48.366
     9.6,-0.000023,-0.000043,-0.000681,-0.000035,  48.365
     9.8,-0.000028,-0.000045,-0.000726,-0.000056,  48.363
    10.0,-0.000023,-0.000045,-0.000742,-0.000056,  48.364
    10.2,-0.000025,-0.000042,-0.000725,-0.000021,  48.362
    10.4,-0.000025,-0.000037,-0.000668,-0.000042,  48.362
    10.6,-0.000031,-0.000039,-0.000578,-0.000028,  48.359
    10.8,-0.000033,-0.000039,-0.000566,-0.000007,  48.356
    11.0,-0.000028,-0.000037,-0.000574,-0.000042,  48.355
    11.2,-0.000031,-0.000035,-0.000599,-0.000028,  48.354
    11.4,-0.000025,-0.000035,-0.000591,-0.000007,  48.355
    11.6,-0.000025,-0.000037,-0.000570,-0.000042,  48.352
    11.8,-0.000025,-0.000035,-0.000546,-0.000028,  48.348
    12.0,-0.000025,-0.000032,-0.000496,-0.000007,  48.350
    12.2,-0.000022,-0.000031,-0.000425,-0.000042,  48.345
    12.4,-0.000025,-0.000025,-0.000339,-0.000028,  48.326
    12.6,-0.000030,-0.000027,-0.000339,-0.000007,  48.327
    12.8,-0.000029,-0.000031,-0.000384,-0.000042,  48.326
    13.0,-0.000032,-0.000031,-0.000458,-0.000028,  48.325
    13.2,-0.000040,-0.000032,-0.000479,-0.000007,  48.320
    13.4,-0.000039,-0.000036,-0.000491,-0.000042,  48.323
    13.6,-0.000051,-0.000036,-0.000495,-0.000028,  48.317
    13.8,-0.000067,-0.000036,-0.000478,-0.000007,  48.322
    14.0,-0.000086,-0.000042,-0.000449,-0.000042,  48.329
    14.2,-0.000088,-0.000045,-0.000408,-0.000028,  48.338
    14.4,-0.000086,-0.000043,-0.000383,-0.000007,  48.348
    14.6,-0.000074,-0.000052,-0.000367,-0.000042,  48.339
    14.8,-0.000067,-0.000062,-0.000355,-0.000028,  48.317
    15.0,-0.000064,-0.000068,-0.000322,-0.000007,  48.309
    15.2,-0.000062,-0.000072,-0.000285,-0.000042,  48.305
    15.4,-0.000057,-0.000079,-0.000243,-0.000028,  48.309
    15.6,-0.000055,-0.000085,-0.000235,-0.000007,  48.303
    15.8,-0.000053,-0.000084,-0.000240,-0.000042,  48.300
    16.0,-0.000050,-0.000078,-0.000265,-0.000028,  48.301
    16.2,-0.000050,-0.000075,-0.000261,-0.000007,  48.303
    16.4,-0.000045,-0.000071,-0.000249,-0.000021,  48.296
    16.6,-0.000042,-0.000068,-0.000240,-0.000007,  48.298
    16.8,-0.000045,-0.000066,-0.000264,-0.000035,  48.298
    17.0,-0.000038,-0.000066,-0.000305,-0.000049,  48.292
    17.2,-0.000035,-0.000064,-0.000354,-0.000049,  48.294
    17.4,-0.000036,-0.000058,-0.000420,-0.000063,  48.291
    17.6,-0.000028,-0.000058,-0.000428,-0.000049,  48.295
    17.8,-0.000023,-0.000055,-0.000424,-0.000070,  48.293
    18.0,-0.000029,-0.000055,-0.000411,-0.000070,  48.291
    18.2,-0.000026,-0.000051,-0.000436,-0.000049,  48.292
    18.4,-0.000023,-0.000049,-0.000469,-0.000070,  48.291
    18.6,-0.000029,-0.000045,-0.000514,-0.000070,  48.294
    18.8,-0.000021,-0.000042,-0.000502,-0.000049,  48.293
    19.0,-0.000019,-0.000040,-0.000473,-0.000070,  48.288
    19.2,-0.000026,-0.000040,-0.000423,-0.000070,  48.289
    19.4,-0.000026,-0.000036,-0.000402,-0.000035,  48.288
    19.6,-0.000022,-0.000034,-0.000394,-0.000070,  48.287
    19.8,-0.000019,-0.000032,-0.000382,-0.000070,  48.292
    20.0,-0.000015,-0.000028,-0.000398,-0.000035,  48.293
    20.2,-0.000012,-0.000028,-0.000427,-0.000056,  48.288
    20.4,-0.000012,-0.000025,-0.000477,-0.000056,  48.293
    20.6,-0.000015,-0.000026,-0.000481,-0.000021,  48.295
    20.8,-0.000015,-0.000029,-0.000477,-0.000042,  48.292
    21.0,-0.000018,-0.000023,-0.000461,-0.000042,  48.293
    21.2,-0.000012,-0.000019,-0.000440,-0.000021,  48.293
    21.4,-0.000010,-0.000018,-0.000407,-0.000056,  48.291
    21.6,-0.000010,-0.000019,-0.000374,-0.000042,  48.294
    21.8,-0.000012,-0.000021,-0.000365,-0.000007,  48.295
    22.0,-0.000012,-0.000018,-0.000354,-0.000042,  48.297
    22.2,-0.000019,-0.000012,-0.000358,-0.000028,  48.295
    22.4,-0.000029,-0.000010,-0.000444,-0.000007,  48.299
    22.6,-0.000040,-0.000010,-0.000571,-0.000042,  48.311
    22.8,-0.000040,-0.000007,-0.000743,-0.000028,  48.319
    23.0,-0.000041,-0.000009,-0.000739,-0.000007,  48.329
    23.2,-0.000028,-0.000015,-0.000666,-0.000042,  48.312
    23.4,-0.000021,-0.000024,-0.000523,-0.000028,  48.303
    23.6,-0.000022,-0.000036,-0.000482,-0.000007,  48.298
    23.8,-0.000014,-0.000042,-0.000450,-0.000042,  48.301
    24.0,-0.000009,-0.000042,-0.000434,-0.000007,  48.300
    24.2,-0.000010,-0.000036,-0.000381,0.000014,  48.299
    24.4,-0.000002,-0.000032,-0.000312,-0.000021,  48.299
    24.6,0.000000,-0.000027,-0.000239,0.000014,  48.296
    24.8,0.000003,-0.000021,-0.000228,0.000014,  48.300
    25.0,0.000008,-0.000016,-0.000248,-0.000035,  48.298
    25.2,0.000013,-0.000010,-0.000290,-0.000049,  48.301
    25.4,0.000015,-0.000007,-0.000315,-0.000063,  48.302
    25.6,0.000015,-0.000004,-0.000343,-0.000098,  48.299
    25.8,0.000018,-0.000006,-0.000372,-0.000098,  48.304
    26.0,0.000022,-0.000003,-0.000376,-0.000035,  48.303
    26.2,0.000020,-0.000006,-0.000360,-0.000035,  48.304
    26.4,0.000022,-0.000003,-0.000339,-0.000021,  48.300
    26.6,0.000017,0.000000,-0.000295,-0.000021,  48.300
    26.8,0.000017,0.000000,-0.000266,-0.000021,  48.305
    27.0,0.000019,0.000001,-0.000241,-0.000007,  48.307
    27.2,0.000012,0.000005,-0.000209,-0.000021,  48.304
    27.4,0.000017,0.000005,-0.000188,-0.000021,  48.297
    27.6,0.000017,0.000007,-0.000172,-0.000056,  48.298
    27.8,0.000012,0.000005,-0.000164,-0.000042,  48.304
    28.0,0.000015,0.000008,-0.000164,-0.000007,  48.298
    28.2,0.000015,0.000008,-0.000176,-0.000042,  48.298
    28.4,0.000012,0.000008,-0.000197,-0.000028,  48.297
    28.6,0.000015,0.000006,-0.000189,-0.000007,  48.300
    28.8,0.000015,0.000005,-0.000168,-0.000042,  48.295
    29.0,0.000012,0.000007,-0.000135,-0.000028,  48.301
    29.2,0.000009,0.000003,-0.000106,-0.000007,  48.301
    29.4,0.000009,0.000003,-0.000077,-0.000042,  48.297
    29.6,0.000012,0.000004,-0.000033,-0.000028,  48.302
    29.8,0.000015,0.000007,-0.000033,0.000007,  48.308
    30.0,0.000012,0.000006,-0.000057,-0.000028,  48.307
    30.2,0.000012,0.000000,-0.000090,-0.000014,  48.310
    30.4,0.000007,0.000005,-0.000102,0.000021,  48.309
    30.6,0.000003,0.000005,-0.000111,-0.000014,  48.306
    30.8,-0.000002,0.000005,-0.000111,0.000000,  48.309
    31.0,-0.000012,0.000005,-0.000111,0.000021,  48.318
    31.2,-0.000023,-0.000001,-0.000111,-0.000014,  48.324
    31.4,-0.000023,-0.000001,-0.000107,0.000000,  48.329
    31.6,-0.000026,0.000004,-0.000099,0.000021,  48.340
    31.8,-0.000019,-0.000005,-0.000099,-0.000014,  48.318
    32.0,-0.000014,-0.000019,-0.000094,0.000000,  48.307
    32.2,-0.000019,-0.000026,-0.000098,0.000021,  48.309
    32.4,-0.000014,-0.000029,-0.000111,-0.000014,  48.301
    32.6,-0.000012,-0.000034,-0.000131,0.000000,  48.296
    32.8,-0.000012,-0.000034,-0.000091,0.000021,  48.299
    33.0,-0.000007,-0.000030,-0.000021,-0.000014,  48.296
    33.2,-0.000004,-0.000028,0.000072,0.000000,  48.293
    33.4,-0.000007,-0.000026,0.000080,0.000021,  48.290
    33.6,0.000000,-0.000021,0.000052,-0.000028,  48.286
    33.8,0.000005,-0.000017,-0.000005,-0.000042,  48.294
    34.0,-0.000000,-0.000018,-0.000087,-0.000035,  48.285
    34.2,0.000002,-0.000016,-0.000198,-0.000070,  48.295
    34.4,0.000004,-0.000014,-0.000341,-0.000070,  48.288
    34.6,0.000007,-0.000012,-0.000353,-0.000021,  48.290
    34.8,0.000004,-0.000012,-0.000316,-0.000042,  48.282
    35.0,0.000004,-0.000008,-0.000226,-0.000042,  48.282
    35.2,0.000007,-0.000006,-0.000230,-0.000021,  48.280
    35.4,0.000007,-0.000009,-0.000250,-0.000056,  48.282
    35.6,0.000007,-0.000006,-0.000284,-0.000056,  48.282
    35.8,0.000009,-0.000005,-0.000276,-0.000021,  48.281
    36.0,0.000015,-0.000005,-0.000255,-0.000007,  48.279
    36.2,0.000017,-0.000008,-0.000222,-0.000007,  48.280
    36.4,0.000014,-0.000000,-0.000173,-0.000007,  48.280
    36.6,0.000022,0.000001,-0.000246,-0.000007,  48.274
    36.8,0.000024,-0.000001,-0.000368,0.000021,  48.276
    37.0,0.000022,0.000003,-0.000524,0.000021,  48.275
    37.2,0.000027,0.000003,-0.000536,0.000007,  48.275
    37.4,0.000030,0.000003,-0.000491,-0.000028,  48.273
    37.6,0.000024,0.000007,-0.000394,-0.000014,  48.275
    37.8,0.000019,0.000010,-0.000349,0.000021,  48.268
    38.0,0.000021,0.000010,-0.000300,-0.000014,  48.273
    38.2,0.000019,0.000012,-0.000243,0.000000,  48.273
    38.4,0.000016,0.000011,-0.000222,0.000021,  48.275
    38.6,0.000016,0.000007,-0.000218,-0.000014,  48.276
    38.8,0.000009,0.000011,-0.000222,0.000000,  48.274
    39.0,0.000002,0.000013,-0.000239,0.000021,  48.272
    39.2,-0.000005,0.000007,-0.000268,0.000000,  48.269
    39.4,-0.000020,0.000009,-0.000301,0.000000,  48.271
    39.6,-0.000032,0.000010,-0.000293,0.000035,  48.281
    39.8,-0.000037,0.000006,-0.000273,0.000014,  48.295
    40.0,-0.000044,0.000002,-0.000235,0.000000,  48.300
    40.2,-0.000034,-0.000000,-0.000198,0.000035,  48.302
    40.4,-0.000032,-0.000007,-0.000161,0.000000,  48.274
    40.6,-0.000029,-0.000018,-0.000120,0.000035,  48.268
    40.8,-0.000025,-0.000029,-0.000103,0.000056,  48.259
    41.0,-0.000022,-0.000037,-0.000095,0.000021,  48.263
    41.2,-0.000018,-0.000039,-0.000095,0.000070,  48.259
    41.4,-0.000021,-0.000038,-0.000108,0.000056,  48.255
    41.6,-0.000015,-0.000038,-0.000133,0.000021,  48.241
    41.8,-0.000013,-0.000035,-0.000167,0.000070,  48.244
    42.0,-0.000018,-0.000029,-0.000171,0.000056,  48.240
    42.2,-0.000013,-0.000026,-0.000175,0.000007,  48.242
    42.4,-0.000010,-0.000026,-0.000170,0.000028,  48.240
    42.6,-0.000016,-0.000026,-0.000153,0.000000,  48.239
    42.8,-0.000013,-0.000024,-0.000127,-0.000049,  48.238
    43.0,-0.000010,-0.000022,-0.000086,-0.000014,  48.241
    43.2,-0.000010,-0.000024,-0.000102,0.000000,  48.239
    43.4,-0.000005,-0.000026,-0.000143,-0.000021,  48.235
    43.6,-0.000003,-0.000021,-0.000205,-0.000007,  48.233
    43.8,-0.000003,-0.000022,-0.000221,-0.000007,  48.234
    44.0,-0.000003,-0.000020,-0.000222,-0.000028,  48.237
    44.2,-0.000000,-0.000023,-0.000217,-0.000014,  48.240
    44.4,-0.000003,-0.000023,-0.000197,-0.000007,  48.235
    44.6,-0.000007,-0.000021,-0.000172,-0.000042,  48.236
    44.8,-0.000005,-0.000021,-0.000134,-0.000028,  48.231
    45.0,-0.000007,-0.000016,-0.000105,-0.000007,  48.233
    45.2,-0.000010,-0.000014,-0.000068,-0.000042,  48.237
    45.4,-0.000010,-0.000016,-0.000031,-0.000028,  48.233
    45.6,-0.000012,-0.000016,-0.000014,0.000007,  48.232
    45.8,-0.000017,-0.000016,-0.000002,0.000007,  48.233
    46.0,-0.000017,-0.000019,-0.000001,0.000007,  48.235
    46.2,-0.000015,-0.000019,-0.000006,0.000007,  48.229
    46.4,-0.000017,-0.000020,-0.000063,0.000007,  48.235
    46.6,-0.000017,-0.000028,-0.000146,0.000007,  48.235
    46.8,-0.000017,-0.000029,-0.000253,0.000007,  48.237
    47.0,-0.000019,-0.000029,-0.000294,0.000021,  48.239
    47.2,-0.000022,-0.000031,-0.000315,-0.000014,  48.241
    47.4,-0.000026,-0.000029,-0.000307,0.000000,  48.237
    47.6,-0.000031,-0.000029,-0.000303,0.000021,  48.235
    47.8,-0.000038,-0.000033,-0.000290,-0.000014,  48.240
    48.0,-0.000045,-0.000029,-0.000265,-0.000014,  48.242
    48.2,-0.000055,-0.000029,-0.000256,0.000007,  48.251
    48.4,-0.000057,-0.000027,-0.000244,-0.000028,  48.260
    48.6,-0.000055,-0.000029,-0.000240,-0.000028,  48.271
    48.8,-0.000055,-0.000026,-0.000240,0.000007,  48.290
    49.0,-0.000053,-0.000032,-0.000252,-0.000028,  48.264
    49.2,-0.000050,-0.000045,-0.000264,-0.000028,  48.241
    49.4,-0.000048,-0.000060,-0.000276,0.000007,  48.238
    49.6,-0.000045,-0.000063,-0.000293,-0.000028,  48.234
    49.8,-0.000048,-0.000063,-0.000309,-0.000028,  48.233
    50.0,-0.000043,-0.000063,-0.000293,0.000007,  48.236
    50.2,-0.000043,-0.000061,-0.000256,-0.000028,  48.240
    50.4,-0.000043,-0.000060,-0.000200,-0.000028,  48.238
    50.6,-0.000041,-0.000061,-0.000188,0.000007,  48.238
    50.8,-0.000033,-0.000057,-0.000180,-0.000042,  48.245
    51.0,-0.000030,-0.000059,-0.000192,-0.000056,  48.242
    51.2,-0.000034,-0.000058,-0.000183,-0.000049,  48.241
    51.4,-0.000036,-0.000054,-0.000174,-0.000084,  48.244
    51.6,-0.000034,-0.000055,-0.000162,-0.000084,  48.242
    51.8,-0.000034,-0.000049,-0.000186,-0.000035,  48.248
    52.0,-0.000031,-0.000049,-0.000218,-0.000070,  48.247
    52.2,-0.000029,-0.000047,-0.000275,-0.000070,  48.251
    52.4,-0.000026,-0.000044,-0.000361,-0.000035,  48.248
    52.6,-0.000024,-0.000042,-0.000472,-0.000070,  48.246
    52.8,-0.000015,-0.000039,-0.000607,-0.000070,  48.258
    53.0,-0.000007,-0.000035,-0.000606,-0.000035,  48.258
    53.2,0.000002,-0.000032,-0.000541,-0.000056,  48.260
    53.4,0.000019,-0.000032,-0.000434,-0.000056,  48.250
    53.6,0.000038,-0.000033,-0.000388,-0.000021,  48.273
    53.8,0.000059,-0.000018,-0.000331,-0.000042,  48.289
    54.0,0.000080,-0.000003,-0.000287,-0.000028,  48.325
    54.2,0.000099,0.000014,-0.000283,-0.000007,  48.334
    54.4,0.000123,0.000034,-0.000303,-0.000042,  48.345
    54.6,0.000147,0.000055,-0.000349,-0.000028,  48.353
    54.8,0.000163,0.000083,-0.000337,-0.000007,  48.363
    55.0,0.000182,0.000107,-0.000293,-0.000042,  48.375
    55.2,0.000225,0.000127,-0.000233,-0.000028,  48.379
    55.4,0.000277,0.000154,-0.000141,-0.000007,  48.387
    55.6,0.000345,0.000174,-0.000012,-0.000021,  48.395
    55.8,0.000288,0.000193,0.000153,-0.000007,  48.405
    56.0,0.000166,0.000214,0.000286,-0.000021,  48.410
    56.2,-0.000002,0.000236,0.000415,-0.000021,  48.431
    56.4,-0.000076,0.000267,0.000552,-0.000021,  48.434
    56.6,-0.000136,0.000295,0.000682,-0.000035,  48.394
    56.8,-0.000166,0.000250,0.000799,-0.000035,  48.339
    57.0,-0.000185,0.000180,0.000911,-0.000070,  48.319
    57.2,-0.000192,0.000072,0.001011,-0.000056,  48.312
    57.4,-0.000173,0.000015,0.001115,-0.000007,  48.305
    57.6,-0.000163,-0.000037,0.001223,-0.000014,  48.292
    57.8,-0.000154,-0.000082,0.001328,0.000014,  48.278
    58.0,-0.000137,-0.000121,0.001396,0.000049,  48.276
    58.2,-0.000125,-0.000147,0.001440,0.000028,  48.255
    58.4,-0.000121,-0.000161,0.001468,0.000042,  48.256
    58.6,-0.000111,-0.000166,0.001412,0.000091,  48.256
    58.8,-0.000097,-0.000166,0.001297,0.000071,  48.257
    59.0,-0.000086,-0.000161,0.001129,0.000099,  48.254
    59.2,-0.000061,-0.000151,0.000968,0.000147,  48.251
    59.4,-0.000045,-0.000145,0.000782,0.000071,  48.253
    59.6,-0.000036,-0.000132,0.000575,0.000000,  48.257
    59.8,-0.000019,-0.000122,0.000438,-0.000105,  48.258
    60.0,-0.000009,-0.000112,0.000322,-0.000182,  48.255
    60.2,-0.000002,-0.000095,0.000229,-0.000196,  48.253
    60.4,0.000003,-0.000080,0.000145,-0.000161,  48.254
    60.6,0.000005,-0.000063,0.000072,-0.000196,  48.257
    60.8,0.000010,-0.000046,-0.000000,-0.000182,  48.253
    61.0,0.000015,-0.000024,-0.000044,-0.000133,  48.258
    61.2,0.000017,-0.000014,-0.000068,-0.000140,  48.257
    61.4,0.000022,-0.000004,-0.000076,-0.000126,  48.259
    61.6,0.000016,0.000002,-0.000092,-0.000091,  48.260
    61.8,0.000019,0.000007,-0.000120,-0.000112,  48.260
    62.0,0.000019,0.000008,-0.000137,-0.000098,  48.259
    62.2,0.000014,0.000018,-0.000268,-0.000049,  48.258
    62.4,0.000015,0.000021,-0.000456,-0.000056,  48.257
    62.6,0.000015,0.000020,-0.000698,-0.000056,  48.254
    62.8,0.000012,0.000020,-0.000709,-0.000021,  48.256
    63.0,0.000015,0.000022,-0.000627,-0.000042,  48.258
    63.2,0.000015,0.000022,-0.000460,0.000007,  48.254
    63.4,0.000012,0.000022,-0.000406,0.000028,  48.251
    63.6,0.000015,0.000020,-0.000364,-0.000007,  48.249
    63.8,0.000015,0.000021,-0.000331,0.000042,  48.250
    64.0,0.000009,0.000022,-0.000319,0.000028,  48.243
    64.2,0.000012,0.000022,-0.000327,-0.000007,  48.248
    64.4,0.000010,0.000021,-0.000348,0.000042,  48.244
    64.6,-0.000000,0.000019,-0.000323,0.000042,  48.243
    64.8,0.000000,0.000018,-0.000278,0.000007,  48.249
    65.0,-0.000001,0.000016,-0.000212,0.000056,  48.245
    65.2,-0.000016,0.000007,-0.000204,0.000056,  48.247
    65.4,-0.000024,0.000006,-0.000216,0.000056,  48.255
    65.6,-0.000019,0.000009,-0.000253,0.000021,  48.265
    65.8,-0.000017,0.000010,-0.000261,0.000056,  48.273
    66.0,-0.000015,0.000007,-0.000269,0.000042,  48.263
    66.2,-0.000016,-0.000001,-0.000282,0.000007,  48.257
    66.4,-0.000011,-0.000004,-0.000294,0.000007,  48.254
    66.6,-0.000004,-0.000006,-0.000290,0.000042,  48.248
    66.8,-0.000002,-0.000013,-0.000282,0.000007,  48.243
    67.0,-0.000000,-0.000005,-0.000273,0.000042,  48.241
    67.2,0.000010,-0.000009,-0.000229,0.000042,  48.243
    67.4,0.000015,-0.000005,-0.000176,0.000007,  48.247
    67.6,0.000016,-0.000003,-0.000098,0.000042,  48.241
    67.8,0.000024,0.000000,-0.000107,0.000042,  48.245
    68.0,0.000029,0.000007,-0.000153,-0.000007,  48.240
    68.2,0.000028,0.000012,-0.000235,0.000014,  48.243
    68.4,0.000036,0.000021,-0.000227,0.000000,  48.238
    68.6,0.000041,0.000026,-0.000190,-0.000049,  48.242
    68.8,0.000040,0.000033,-0.000131,-0.000014,  48.244
    69.0,0.000048,0.000037,-0.000143,-0.000014,  48.242
    69.2,0.000050,0.000041,-0.000180,-0.000021,  48.242
    69.4,0.000047,0.000039,-0.000238,0.000014,  48.242
    69.6,0.000053,0.000040,-0.000246,0.000014,  48.248
    69.8,0.000055,0.000044,-0.000242,-0.000007,  48.247
    70.0,0.000057,0.000043,-0.000226,0.000028,  48.246
    70.2,0.000057,0.000051,-0.000201,0.000014,  48.245
    70.4,0.000060,0.000055,-0.000168,-0.000021,  48.245
    70.6,0.000064,0.000051,-0.000123,0.000028,  48.241
    70.8,0.000064,0.000052,-0.000098,0.000028,  48.246
    71.0,0.000062,0.000057,-0.000098,-0.000007,  48.242
    71.2,0.000067,0.000054,-0.000098,0.000042,  48.239
    71.4,0.000066,0.000055,-0.000070,0.000042,  48.243
    71.6,0.000074,0.000052,-0.000041,0.000007,  48.244
    71.8,0.000079,0.000054,0.000004,0.000056,  48.242
    72.0,0.000076,0.000060,0.000012,0.000056,  48.238
    72.2,0.000081,0.000062,0.000012,0.000021,  48.236
    72.4,0.000083,0.000065,-0.000005,0.000070,  48.239
    72.6,0.000078,0.000068,0.000020,0.000056,  48.238
    72.8,0.000078,0.000068,0.000065,0.000056,  48.241
    73.0,0.000080,0.000069,0.000118,0.000056,  48.235
    73.2,0.000078,0.000071,0.000151,0.000077,  48.243
    73.4,0.000076,0.000073,0.000184,0.000042,  48.243
    73.6,0.000068,0.000075,0.000216,0.000042,  48.242
    73.8,0.000057,0.000082,0.000203,0.000042,  48.252
    74.0,0.000042,0.000087,0.000158,0.000007,  48.259
    74.2,0.000038,0.000087,0.000092,0.000042,  48.263
    74.4,0.000035,0.000092,0.000079,0.000042,  48.277
    74.6,0.000043,0.000090,0.000091,0.000007,  48.269
    74.8,0.000045,0.000083,0.000103,0.000056,  48.263
    75.0,0.000040,0.000075,0.000090,0.000056,  48.260
    75.2,0.000045,0.000071,0.000078,0.000056,  48.260
    75.4,0.000048,0.000066,0.000052,0.000035,  48.263
    75.6,0.000048,0.000070,0.000056,0.000070,  48.262
    75.8,0.000051,0.000066,0.000076,0.000070,  48.265
    76.0,0.000053,0.000059,0.000100,0.000035,  48.266
    76.2,0.000053,0.000059,0.000136,0.000035,  48.266
    76.4,0.000051,0.000058,0.000156,0.000070,  48.272
    76.6,0.000053,0.000058,0.000177,0.000035,  48.272
    76.8,0.000053,0.000056,0.000198,0.000056,  48.280
    77.0,0.000051,0.000060,0.000206,0.000028,  48.276
    77.2,0.000056,0.000058,0.000206,-0.000007,  48.278
    77.4,0.000056,0.000055,0.000206,0.000042,  48.277
    77.6,0.000056,0.000059,0.000198,0.000028,  48.283
    77.8,0.000058,0.000057,0.000173,-0.000007,  48.287
    78.0,0.000058,0.000057,0.000148,0.000056,  48.294
    78.2,0.000056,0.000053,0.000132,0.000056,  48.288
    78.4,0.000053,0.000053,0.000116,0.000021,  48.285
    78.6,0.000048,0.000053,0.000096,0.000070,  48.290
    78.8,0.000044,0.000055,0.000084,0.000056,  48.298
    79.0,0.000041,0.000052,0.000071,0.000021,  48.308
    79.2,0.000039,0.000053,0.000063,0.000070,  48.313
    79.4,0.000039,0.000057,0.000089,0.000056,  48.311
    79.6,0.000037,0.000053,0.000134,0.000021,  48.315
    79.8,0.000037,0.000052,0.000205,0.000070,  48.318
    80.0,0.000034,0.000048,0.000213,0.000056,  48.323
    80.2,0.000030,0.000046,0.000197,0.000021,  48.322
    80.4,0.000030,0.000045,0.000160,0.000070,  48.319
    80.6,0.000025,0.000047,0.000135,0.000056,  48.323
    80.8,0.000022,0.000039,0.000103,0.000021,  48.330
    81.0,0.000025,0.000036,0.000057,0.000070,  48.329
    81.2,0.000025,0.000033,0.000041,0.000056,  48.326
    81.4,0.000027,0.000029,0.000030,0.000021,  48.329
    81.6,0.000025,0.000028,0.000034,0.000070,  48.331
    81.8,0.000018,0.000028,0.000017,0.000056,  48.333
    82.0,0.000008,0.000022,-0.000007,0.000021,  48.335
    82.2,0.000003,0.000023,-0.000040,0.000070,  48.335
    82.4,-0.000006,0.000027,-0.000044,0.000056,  48.341
    82.6,-0.000018,0.000027,-0.000036,0.000021,  48.347
    82.8,-0.000013,0.000025,-0.000018,0.000070,  48.349
    83.0,-0.000013,0.000026,-0.000026,0.000056,  48.352
    83.2,-0.000013,0.000024,-0.000047,0.000021,  48.348
    83.4,-0.000002,0.000015,-0.000076,0.000070,  48.342
    83.6,0.000000,0.000004,-0.000064,0.000056,  48.344
    83.8,-0.000003,-0.000003,-0.000051,0.000021,  48.340
    84.0,0.000002,-0.000010,-0.000022,0.000056,  48.336
    84.2,0.000004,-0.000008,-0.000010,0.000042,  48.333
    84.4,0.000006,-0.000007,-0.000007,0.000007,  48.338
    84.6,0.000003,-0.000009,-0.000004,0.000042,  48.337
    84.8,0.000003,-0.000006,-0.000012,0.000042,  48.337
    85.0,0.000003,-0.000004,-0.000029,0.000028,  48.334
    85.2,0.000000,-0.000004,-0.000053,-0.000007,  48.334
    85.4,0.000000,-0.000003,-0.000085,0.000000,  48.337
    85.6,0.000003,-0.000003,-0.000068,-0.000014,  48.334
    85.8,0.000006,0.000002,-0.000023,-0.000049,  48.334
    86.0,0.000008,0.000007,0.000031,-0.000063,  48.336
    86.2,0.000008,0.000009,0.000011,-0.000014,  48.331
    86.4,0.000011,0.000005,-0.000035,-0.000035,  48.336
    86.6,0.000011,0.000005,-0.000120,0.000000,  48.339
    86.8,0.000008,0.000002,-0.000132,0.000000,  48.336
    87.0,0.000011,-0.000004,-0.000116,-0.000035,  48.339
    87.2,0.000008,-0.000004,-0.000075,0.000000,  48.345
    87.4,0.000003,-0.000003,-0.000058,0.000000,  48.340
    87.6,0.000006,-0.000004,-0.000041,-0.000021,  48.344
    87.8,0.000003,-0.000006,-0.000016,0.000014,  48.343
    88.0,0.000001,-0.000003,-0.000029,0.000014,  48.344
    88.2,0.000003,-0.000006,-0.000062,-0.000007,  48.349
    88.4,0.000001,-0.000006,-0.000115,0.000042,  48.351
    88.6,0.000001,-0.000006,-0.000115,0.000028,  48.351
    88.8,0.000001,-0.000008,-0.000106,-0.000007,  48.353
    89.0,0.000001,-0.000006,-0.000070,0.000042,  48.356
    89.2,0.000001,-0.000003,-0.000057,0.000028,  48.360
    89.4,0.000001,-0.000005,-0.000052,-0.000007,  48.359
    89.6,0.000001,-0.000002,-0.000048,0.000042,  48.365
    89.8,-0.000001,-0.000003,-0.000076,0.000028,  48.366
    90.0,-0.000001,-0.000005,-0.000133,-0.000007,  48.367
    90.2,-0.000004,-0.000006,-0.000199,0.000042,  48.366
    90.4,-0.000011,-0.000006,-0.000240,0.000028,  48.372
    90.6,-0.000020,-0.000009,-0.000285,-0.000007,  48.372
    90.8,-0.000022,-0.000005,-0.000322,0.000028,  48.379
    91.0,-0.000032,-0.000003,-0.000310,0.000014,  48.376
    91.2,-0.000041,-0.000006,-0.000277,-0.000021,  48.381
    91.4,-0.000038,-0.000005,-0.000215,0.000014,  48.387
    91.6,-0.000036,-0.000003,-0.000228,0.000014,  48.390
    91.8,-0.000039,-0.000012,-0.000268,-0.000021,  48.382
    92.0,-0.000036,-0.000015,-0.000330,0.000014,  48.384
    92.2,-0.000032,-0.000024,-0.000310,0.000014,  48.381
    92.4,-0.000029,-0.000030,-0.000252,-0.000021,  48.378
    92.6,-0.000024,-0.000031,-0.000166,0.000014,  48.382
    92.8,-0.000022,-0.000027,-0.000154,0.000014,  48.381
    93.0,-0.000020,-0.000031,-0.000151,-0.000035,  48.373
    93.2,-0.000020,-0.000028,-0.000173,0.000000,  48.376
    93.4,-0.000016,-0.000025,-0.000185,0.000000,  48.380
    93.6,-0.000013,-0.000026,-0.000201,-0.000049,  48.380
    93.8,-0.000014,-0.000024,-0.000229,-0.000042,  48.381
    94.0,-0.000014,-0.000023,-0.000216,-0.000056,  48.384
    94.2,-0.000008,-0.000020,-0.000183,-0.000077,  48.377
    94.4,-0.000001,-0.000015,-0.000137,-0.000056,  48.376
    94.6,-0.000001,-0.000013,-0.000133,-0.000056,  48.378
    94.8,0.000002,-0.000010,-0.000145,-0.000056,  48.381
    95.0,0.000005,-0.000003,-0.000162,-0.000077,  48.378
    95.2,0.000010,0.000000,-0.000203,-0.000028,  48.373
    95.4,0.000017,0.000000,-0.000178,-0.000028,  48.377
    95.6,0.000016,0.000006,-0.000140,-0.000063,  48.374
    95.8,0.000021,0.000006,-0.000083,-0.000049,  48.372
    96.0,0.000031,0.000007,-0.000063,-0.000028,  48.368
    96.2,0.000030,0.000005,-0.000063,-0.000049,  48.369
    96.4,0.000030,0.000010,-0.000071,-0.000014,  48.369
    96.6,0.000033,0.000010,-0.000088,-0.000014,  48.369
    96.8,0.000030,0.000014,-0.000116,-0.000035,  48.364
    97.0,0.000033,0.000016,-0.000161,0.000000,  48.362
    97.2,0.000043,0.000020,-0.000182,-0.000014,  48.363
    97.4,0.000040,0.000020,-0.000190,-0.000035,  48.363
    97.6,0.000042,0.000027,-0.000195,0.000000,  48.361
    97.8,0.000050,0.000034,-0.000199,0.000000,  48.356
    98.0,0.000049,0.000037,-0.000203,-0.000035,  48.352
    98.2,0.000054,0.000038,-0.000195,0.000000,  48.354
    98.4,0.000059,0.000043,-0.000220,0.000000,  48.347
    98.6,0.000061,0.000044,-0.000261,-0.000021,  48.350
    98.8,0.000056,0.000051,-0.000315,0.000014,  48.345
    99.0,0.000056,0.000057,-0.000286,0.000014,  48.346
    99.2,0.000049,0.000059,-0.000224,-0.000007,  48.349
    99.4,0.000044,0.000062,-0.000130,0.000028,  48.347
    99.6,0.000037,0.000070,-0.000126,0.000014,  48.352
    99.8,0.000028,0.000074,-0.000151,-0.000021,  48.354
   100.0,0.000022,0.000070,-0.000201,0.000014,  48.361
   100.2,0.000020,0.000075,-0.000201,0.000014,  48.357
   100.4,0.000022,0.000073,-0.000193,-0.000021,  48.354
   100.6,0.000019,0.000068,-0.000168,0.000028,  48.347
   100.8,0.000022,0.000061,-0.000189,0.000028,  48.342
   101.0,0.000032,0.000053,-0.000222,-0.000007,  48.344
   101.2,0.000037,0.000048,-0.000275,0.000042,  48.335
   101.4,0.000039,0.000045,-0.000255,0.000028,  48.341
   101.6,0.000044,0.000041,-0.000206,-0.000007,  48.342
   101.8,0.000051,0.000045,-0.000121,0.000042,  48.341
   102.0,0.000056,0.000051,-0.000109,0.000028,  48.339
   102.2,0.000058,0.000052,-0.000112,-0.000021,  48.342
   102.4,0.000063,0.000055,-0.000125,0.000000,  48.343
   102.6,0.000067,0.000062,-0.000141,-0.000028,  48.343
   102.8,0.000067,0.000062,-0.000169,-0.000063,  48.338
   103.0,0.000072,0.000061,-0.000202,-0.000042,  48.342
   103.2,0.000069,0.000065,-0.000227,-0.000028,  48.345
   103.4,0.000072,0.000066,-0.000255,-0.000049,  48.345
   103.6,0.000074,0.000064,-0.000272,-0.000014,  48.349
   103.8,0.000068,0.000071,-0.000293,-0.000014,  48.346
   104.0,0.000072,0.000075,-0.000309,-0.000021,  48.351
   104.2,0.000072,0.000073,-0.000329,0.000014,  48.351
   104.4,0.000066,0.000075,-0.000374,0.000014,  48.354
   104.6,0.000072,0.000076,-0.000427,0.000014,  48.361
   104.8,0.000072,0.000075,-0.000493,-0.000007,  48.359
   105.0,0.000071,0.000075,-0.000566,0.000014,  48.362
   105.2,0.000079,0.000077,-0.000550,0.000014,  48.363
   105.4,0.000081,0.000081,-0.000502,-0.000007,  48.364
   105.6,0.000078,0.000085,-0.000428,-0.000007,  48.368
   105.8,0.000083,0.000089,-0.000363,0.000028,  48.365
   106.0,0.000086,0.000086,-0.000289,-0.000007,  48.371
   106.2,0.000080,0.000095,-0.000207,0.000042,  48.365
   106.4,0.000086,0.000092,-0.000187,0.000042,  48.364
   106.6,0.000088,0.000090,-0.000196,0.000007,  48.357
   106.8,0.000080,0.000087,-0.000241,0.000056,  48.360
   107.0,0.000086,0.000088,-0.000233,0.000056,  48.358
   107.2,0.000086,0.000088,-0.000209,0.000021,  48.358
   107.4,0.000073,0.000095,-0.000172,0.000070,  48.351
   107.6,0.000072,0.000101,-0.000123,0.000056,  48.353
   107.8,0.000067,0.000104,-0.000062,0.000035,  48.353
   108.0,0.000054,0.000102,0.000012,0.000070,  48.357
   108.2,0.000050,0.000106,0.000041,0.000070,  48.359
   108.4,0.000048,0.000105,0.000056,0.000049,  48.361
   108.6,0.000048,0.000107,0.000052,0.000070,  48.370
   108.8,0.000050,0.000103,0.000056,0.000070,  48.367
   109.0,0.000055,0.000100,0.000060,0.000049,  48.357
   109.2,0.000060,0.000092,0.000055,0.000070,  48.352
   109.4,0.000062,0.000083,0.000055,0.000070,  48.351
   109.6,0.000064,0.000078,0.000051,0.000049,  48.350
   109.8,0.000067,0.000077,0.000054,0.000070,  48.345
   110.0,0.000061,0.000078,0.000070,0.000070,  48.348
   110.2,0.000069,0.000075,0.000082,0.000049,  48.344
   110.4,0.000069,0.000073,0.000101,0.000070,  48.351
   110.6,0.000069,0.000078,0.000027,0.000070,  48.349
   110.8,0.000072,0.000078,-0.000092,0.000035,  48.348
   111.0,0.000075,0.000079,-0.000264,0.000042,  48.348
   111.2,0.000072,0.000084,-0.000264,0.000014,  48.342
   111.4,0.000067,0.000084,-0.000211,-0.000021,  48.346
   111.6,0.000075,0.000078,-0.000096,0.000028,  48.347
   111.8,0.000075,0.000080,-0.000047,0.000028,  48.345
   112.0,0.000073,0.000080,-0.000005,-0.000007,  48.344
   112.2,0.000073,0.000075,0.000039,0.000042,  48.349
   112.4,0.000073,0.000071,0.000084,0.000028,  48.348
   112.6,0.000063,0.000071,0.000125,-0.000007,  48.347
   112.8,0.000057,0.000065,0.000161,0.000042,  48.349
   113.0,0.000057,0.000064,0.000161,0.000042,  48.345
   113.2,0.000058,0.000059,0.000145,0.000007,  48.348
   113.4,0.000058,0.000055,0.000104,0.000056,  48.345
   113.6,0.000058,0.000055,0.000087,0.000056,  48.342
   113.8,0.000056,0.000053,0.000080,0.000056,  48.343
   114.0,0.000056,0.000047,0.000079,0.000035,  48.344
   114.2,0.000058,0.000051,0.000084,0.000056,  48.347
   114.4,0.000058,0.000054,0.000100,0.000056,  48.345
   114.6,0.000058,0.000050,0.000121,0.000021,  48.350
   114.8,0.000063,0.000052,0.000153,0.000021,  48.350
   115.0,0.000063,0.000052,0.000186,0.000056,  48.351
   115.2,0.000065,0.000049,0.000232,0.000021,  48.356
   115.4,0.000067,0.000047,0.000277,0.000070,  48.352
   115.6,0.000067,0.000049,0.000265,0.000056,  48.354
   115.8,0.000071,0.000049,0.000236,0.000021,  48.358
   116.0,0.000066,0.000054,0.000173,0.000070,  48.353
   116.2,0.000056,0.000052,0.000177,0.000056,  48.355
   116.4,0.000059,0.000054,0.000198,0.000021,  48.359
   116.6,0.000057,0.000056,0.000238,0.000070,  48.359
   116.8,0.000047,0.000055,0.000246,0.000056,  48.363
   117.0,0.000054,0.000057,0.000238,0.000021,  48.371
   117.2,0.000061,0.000059,0.000225,0.000070,  48.373
   117.4,0.000071,0.000057,0.000262,0.000056,  48.367
   117.6,0.000080,0.000053,0.000323,0.000021,  48.362
   117.8,0.000085,0.000049,0.000409,0.000070,  48.356
   118.0,0.000092,0.000042,0.000458,0.000056,  48.358
   118.2,0.000099,0.000040,0.000494,0.000021,  48.358
   118.4,0.000106,0.000043,0.000522,0.000070,  48.357
   118.6,0.000111,0.000047,0.000562,0.000056,  48.356
   118.8,0.000118,0.000045,0.000606,0.000021,  48.357
   119.0,0.000127,0.000049,0.000649,0.000056,  48.349
   119.2,0.000135,0.000051,0.000616,0.000042,  48.348
   119.4,0.000142,0.000055,0.000545,-0.000007,  48.349
   119.6,0.000146,0.000064,0.000442,0.000014,  48.339
   119.8,0.000153,0.000073,0.000466,-0.000014,  48.344
   120.0,0.000160,0.000076,0.000531,-0.000049,  48.344
   120.2,0.000170,0.000084,0.000645,-0.000014,  48.338
   120.4,0.000177,0.000088,0.000742,0.000000,  48.341
   120.6,0.000189,0.000091,0.000849,-0.000021,  48.338
   120.8,0.000204,0.000100,0.000971,0.000028,  48.335
   121.0,0.000214,0.000103,0.001052,0.000028,  48.330
   121.2,0.000213,0.000108,0.001125,0.000007,  48.332
   121.4,0.000217,0.000115,0.001185,0.000056,  48.338
   121.6,0.000229,0.000120,0.001229,0.000042,  48.335
   121.8,0.000238,0.000121,0.001261,0.000007,  48.332
   122.0,0.000245,0.000129,0.001284,0.000056,  48.333
   122.2,0.000254,0.000133,0.001340,0.000056,  48.333
   122.4,0.000269,0.000134,0.001400,0.000021,  48.331
   122.6,0.000287,0.000141,0.001476,0.000070,  48.335
   122.8,0.000298,0.000146,0.001598,0.000056,  48.336
   123.0,0.000310,0.000150,0.001752,0.000021,  48.336
   123.2,0.000328,0.000156,0.001931,0.000070,  48.335
   123.4,0.000339,0.000158,0.002028,0.000056,  48.334
   123.6,0.000346,0.000165,0.002096,0.000021,  48.335
   123.8,0.000360,0.000171,0.002137,0.000070,  48.333
   124.0,0.000377,0.000180,0.002230,0.000056,  48.336
   124.2,0.000389,0.000187,0.002339,0.000056,  48.335
   124.4,0.000398,0.000196,0.002446,0.000035,  48.331
   124.6,0.000405,0.000202,0.002580,0.000056,  48.335
   124.8,0.000408,0.000205,0.002697,0.000056,  48.335
   125.0,0.000412,0.000214,0.002823,0.000021,  48.338
   125.2,0.000419,0.000221,0.002951,0.000021,  48.337
   125.4,0.000428,0.000226,0.003073,0.000056,  48.341
   125.6,0.000445,0.000233,0.003209,0.000021,  48.350
   125.8,0.000462,0.000233,0.003342,0.000070,  48.352
   126.0,0.000488,0.000240,0.003480,0.000056,  48.340
   126.2,0.000515,0.000242,0.003633,0.000021,  48.337
   126.4,0.000537,0.000240,0.003786,0.000070,  48.332
   126.6,0.000553,0.000243,0.003951,0.000056,  48.331
   126.8,0.000568,0.000248,0.004122,0.000021,  48.332
   127.0,0.000590,0.000256,0.004301,0.000070,  48.331
   127.2,0.000611,0.000265,0.004459,0.000056,  48.329
   127.4,0.000633,0.000273,0.004608,0.000021,  48.329
   127.6,0.000656,0.000284,0.004750,0.000056,  48.325
   127.8,0.000683,0.000298,0.004932,0.000042,  48.332
   128.0,0.000702,0.000304,0.005127,-0.000007,  48.336
   128.2,0.000724,0.000318,0.005338,0.000014,  48.327
   128.4,0.000743,0.000330,0.005533,-0.000014,  48.333
   128.6,0.000754,0.000340,0.005724,-0.000014,  48.324
   128.8,0.000775,0.000354,0.005910,-0.000028,  48.323
   129.0,0.000803,0.000370,0.006101,0.000007,  48.326
   129.2,0.000839,0.000382,0.006296,0.000021,  48.329
   129.4,0.000873,0.000392,0.006483,-0.000014,  48.329
   129.6,0.000904,0.000404,0.006721,0.000035,  48.329
   129.8,0.000937,0.000422,0.006986,0.000049,  48.332
   130.0,0.000973,0.000433,0.007273,0.000014,  48.328
   130.2,0.001008,0.000452,0.007499,0.000049,  48.334
   130.4,0.001042,0.000471,0.007708,0.000063,  48.331
   130.6,0.001075,0.000484,0.007892,0.000042,  48.333
   130.8,0.001110,0.000507,0.008170,0.000063,  48.333
   131.0,0.001144,0.000528,0.008482,0.000063,  48.337
   131.2,0.001177,0.000546,0.008833,0.000042,  48.336
   131.4,0.001210,0.000567,0.009139,0.000077,  48.336
   131.6,0.001246,0.000584,0.009437,0.000077,  48.331
   131.8,0.001284,0.000606,0.009730,0.000042,  48.339
   132.0,0.001317,0.000625,0.010096,0.000077,  48.339
   132.2,0.001351,0.000642,0.010503,0.000077,  48.340
   132.4,0.001389,0.000668,0.010949,0.000042,  48.336
   132.6,0.001425,0.000689,0.011358,0.000077,  48.343
   132.8,0.001460,0.000710,0.011779,0.000077,  48.339
   133.0,0.001494,0.000733,0.012209,0.000042,  48.340
   133.2,0.001517,0.000754,0.012610,0.000077,  48.342
   133.4,0.001541,0.000777,0.012996,0.000077,  48.342
   133.6,0.001572,0.000800,0.013370,0.000042,  48.340
   133.8,0.001598,0.000821,0.013730,0.000077,  48.350
   134.0,0.001627,0.000842,0.014071,0.000077,  48.352
   134.2,0.001665,0.000855,0.014399,0.000091,  48.361
   134.4,0.001706,0.000870,0.014711,0.000077,  48.364
   134.6,0.001751,0.000882,0.015105,0.000091,  48.355
   134.8,0.001791,0.000888,0.015516,0.000056,  48.360
   135.0,0.001832,0.000903,0.015952,0.000091,  48.354
   135.2,0.001872,0.000919,0.016385,0.000091,  48.360
   135.4,0.001910,0.000933,0.016835,0.000091,  48.363
   135.6,0.001949,0.000951,0.017287,0.000070,  48.365
   135.8,0.001987,0.000964,0.017662,0.000091,  48.371
   136.0,0.002027,0.000986,0.018005,0.000091,  48.368
   136.2,0.002068,0.001011,0.018317,0.000070,  48.372
   136.4,0.002106,0.001032,0.018749,0.000091,  48.379
   136.6,0.002146,0.001053,0.019226,0.000077,  48.373
   136.8,0.002185,0.001078,0.019750,0.000028,  48.378
   137.0,0.002223,0.001095,0.020237,0.000035,  48.385
   137.2,0.002273,0.001113,0.020726,0.000021,  48.378
   137.4,0.002317,0.001138,0.021224,-0.000014,  48.383
   137.6,0.002372,0.001163,0.021701,0.000035,  48.383
   137.8,0.002418,0.001181,0.022171,0.000049,  48.384
   138.0,0.002458,0.001198,0.022628,0.000014,  48.384
   138.2,0.002497,0.001221,0.022997,0.000049,  48.385
   138.4,0.002526,0.001241,0.023313,0.000063,  48.387
   138.6,0.002573,0.001272,0.023587,0.000042,  48.386
   138.8,0.002624,0.001304,0.023968,0.000063,  48.383
   139.0,0.002676,0.001327,0.024376,0.000063,  48.383
   139.2,0.002726,0.001356,0.024818,0.000042,  48.384
   139.4,0.002776,0.001385,0.025368,0.000077,  48.381
   139.6,0.002824,0.001416,0.025991,0.000077,  48.380
   139.8,0.002874,0.001444,0.026683,0.000056,  48.380
   140.0,0.002927,0.001476,0.027329,0.000091,  48.376
   140.2,0.002977,0.001507,0.027987,0.000091,  48.378
   140.4,0.003030,0.001538,0.028654,0.000056,  48.377
   140.6,0.003082,0.001564,0.029289,0.000077,  48.378
   140.8,0.003132,0.001590,0.029919,0.000077,  48.378
   141.0,0.003182,0.001619,0.030541,0.000042,  48.377
   141.2,0.003233,0.001649,0.031075,0.000077,  48.375
   141.4,0.003278,0.001679,0.031557,0.000077,  48.372
   141.6,0.003319,0.001711,0.031993,0.000042,  48.376
   141.8,0.003352,0.001740,0.032623,0.000077,  48.375
   142.0,0.003378,0.001768,0.033325,0.000077,  48.378
   142.2,0.003417,0.001800,0.034093,0.000042,  48.376
   142.4,0.003457,0.001822,0.034803,0.000063,  48.382
   142.6,0.003500,0.001846,0.035523,0.000063,  48.383
   142.8,0.003551,0.001870,0.036240,0.000042,  48.388
   143.0,0.003601,0.001890,0.036932,0.000077,  48.381
   143.2,0.003658,0.001911,0.037621,0.000077,  48.381
   143.4,0.003709,0.001930,0.038293,0.000042,  48.374
   143.6,0.003754,0.001950,0.038856,0.000077,  48.376
   143.8,0.003797,0.001972,0.039358,0.000077,  48.371
   144.0,0.003843,0.001998,0.039789,0.000077,  48.372
   144.2,0.003886,0.002025,0.040171,0.000077,  48.370
   144.4,0.003931,0.002053,0.040656,0.000077,  48.368
   144.6,0.003977,0.002081,0.041145,0.000028,  48.373
   144.8,0.004017,0.002107,0.041640,0.000063,  48.369
   145.0,0.004060,0.002131,0.042240,0.000063,  48.370
   145.2,0.004106,0.002154,0.042903,0.000049,  48.369
   145.4,0.004149,0.002169,0.043624,0.000000,  48.372
   145.6,0.004192,0.002185,0.044264,0.000007,  48.372
   145.8,0.004253,0.002207,0.044893,0.000007,  48.370
   146.0,0.004310,0.002236,0.045521,-0.000028,  48.372
   146.2,0.004370,0.002264,0.046097,0.000035,  48.374
   146.4,0.004436,0.002290,0.046645,0.000049,  48.372
   146.6,0.004493,0.002311,0.047161,0.000014,  48.369
   146.8,0.004545,0.002328,0.047763,0.000049,  48.373
   147.0,0.004597,0.002360,0.048398,0.000063,  48.375
   147.2,0.004650,0.002394,0.049061,0.000028,  48.381
   147.4,0.004703,0.002433,0.049511,0.000049,  48.378
   147.6,0.004743,0.002467,0.049874,0.000049,  48.378
   147.8,0.004789,0.002501,0.050145,0.000028,  48.380
   148.0,0.004827,0.002532,0.050730,0.000063,  48.378
   148.2,0.004866,0.002563,0.051420,0.000063,  48.372
   148.4,0.004916,0.002596,0.052224,0.000042,  48.381
   148.6,0.004972,0.002632,0.052958,0.000077,  48.381
   148.8,0.005031,0.002663,0.053714,0.000077,  48.379
   149.0,0.005084,0.002691,0.054482,0.000042,  48.378
   149.2,0.005132,0.002725,0.055249,0.000077,  48.379
   149.4,0.005180,0.002760,0.056020,0.000077,  48.381
   149.6,0.005231,0.002792,0.056794,0.000042,  48.381
   149.8,0.005279,0.002821,0.057556,0.000077,  48.385
   150.0,0.005324,0.002856,0.058305,0.000077,  48.384
   150.2,0.005366,0.002888,0.059045,0.000042,  48.386
   150.4,0.005397,0.002917,0.059686,0.000077,  48.384
   150.6,0.005419,0.002944,0.060278,0.000077,  48.386
   150.8,0.005460,0.002974,0.060803,0.000042,  48.389
   151.0,0.005499,0.003009,0.061472,0.000077,  48.393
   151.2,0.005534,0.003035,0.062193,0.000077,  48.393
   151.4,0.005580,0.003053,0.062947,0.000042,  48.397
   151.6,0.005625,0.003080,0.063538,0.000077,  48.393
   151.8,0.005673,0.003100,0.064074,0.000077,  48.385
   152.0,0.005711,0.003117,0.064539,0.000042,  48.382
   152.2,0.005755,0.003135,0.065165,0.000077,  48.385
   152.4,0.005791,0.003157,0.065834,0.000077,  48.382
   152.6,0.005832,0.003185,0.066548,0.000042,  48.386
   152.8,0.005868,0.003213,0.067113,0.000077,  48.382
   153.0,0.005909,0.003235,0.067622,0.000077,  48.383
   153.2,0.005951,0.003261,0.068083,0.000042,  48.382
   153.4,0.005987,0.003285,0.068588,0.000063,  48.381
   153.6,0.006015,0.003305,0.069087,0.000049,  48.383
   153.8,0.006049,0.003330,0.069582,0.000049,  48.381
   154.0,0.006080,0.003354,0.070072,0.000035,  48.382
   154.2,0.006114,0.003373,0.070592,0.000007,  48.382
   154.4,0.006162,0.003396,0.071134,-0.000028,  48.383
   154.6,0.006212,0.003422,0.071683,0.000007,  48.384
   154.8,0.006268,0.003442,0.072051,0.000021,  48.385
   155.0,0.006318,0.003450,0.072339,0.000049,  48.388
   155.2,0.006369,0.003465,0.072534,0.000014,  48.388
   155.4,0.006414,0.003474,0.073010,0.000049,  48.389
   155.6,0.006463,0.003498,0.073585,0.000063,  48.385
   155.8,0.006508,0.003528,0.074252,0.000042,  48.388
   156.0,0.006549,0.003563,0.074634,0.000077,  48.385
   156.2,0.006593,0.003591,0.074928,0.000077,  48.384
   156.4,0.006634,0.003624,0.075117,0.000063,  48.383
   156.6,0.006672,0.003660,0.075606,0.000084,  48.386
   156.8,0.006713,0.003684,0.076207,0.000084,  48.389
   157.0,0.006754,0.003712,0.076903,0.000098,  48.386
   157.2,0.006795,0.003742,0.077537,0.000098,  48.380
   157.4,0.006829,0.003764,0.078198,0.000098,  48.384
   157.6,0.006855,0.003790,0.078880,0.000112,  48.382
   157.8,0.006882,0.003817,0.079507,0.000112,  48.382
   158.0,0.006899,0.003842,0.080114,0.000112,  48.389
   158.2,0.006930,0.003866,0.080708,0.000126,  48.384
   158.4,0.006959,0.003893,0.081320,0.000126,  48.389
   158.6,0.006993,0.003914,0.081932,0.000140,  48.388
   158.8,0.007012,0.003941,0.082550,0.000140,  48.387
   159.0,0.007026,0.003963,0.083119,0.000140,  48.384
   159.2,0.007034,0.003980,0.083664,0.000154,  48.387
   159.4,0.007051,0.004002,0.084183,0.000140,  48.386
   159.6,0.007072,0.004023,0.084674,0.000140,  48.387
   159.8,0.007099,0.004037,0.085134,0.000154,  48.389
   160.0,0.007128,0.004050,0.085565,0.000105,  48.388
   160.2,0.007159,0.004064,0.086056,0.000105,  48.387
   160.4,0.007190,0.004075,0.086555,0.000119,  48.381
   160.6,0.007217,0.004085,0.087064,0.000084,  48.382
   160.8,0.007241,0.004100,0.087457,0.000119,  48.379
   161.0,0.007258,0.004111,0.087799,0.000133,  48.378
   161.2,0.007277,0.004127,0.088080,0.000098,  48.378
   161.4,0.007294,0.004146,0.088394,0.000119,  48.382
   161.6,0.007317,0.004154,0.088698,0.000133,  48.377
   161.8,0.007326,0.004165,0.088992,0.000098,  48.378
   162.0,0.007338,0.004177,0.089345,0.000119,  48.374
   162.2,0.007353,0.004187,0.089715,0.000105,  48.374
   162.4,0.007364,0.004198,0.090110,0.000042,  48.373
   162.6,0.007383,0.004211,0.090425,0.000035,  48.374
   162.8,0.007406,0.004223,0.090712,0.000035,  48.374
   163.0,0.007432,0.004234,0.090959,0.000014,  48.367
   163.2,0.007463,0.004245,0.091163,0.000063,  48.367
   163.4,0.007507,0.004252,0.091332,0.000077,  48.365
   163.6,0.007536,0.004258,0.091454,0.000077,  48.367
   163.8,0.007565,0.004265,0.091549,0.000091,  48.362
   164.0,0.007599,0.004278,0.091749,0.000077,  48.359
   164.2,0.007625,0.004301,0.091975,0.000042,  48.362
   164.4,0.007651,0.004331,0.092213,0.000077,  48.356
   164.6,0.007683,0.004350,0.092274,0.000077,  48.357
   164.8,0.007705,0.004362,0.092249,0.000077,  48.358
   165.0,0.007729,0.004384,0.092140,0.000056,  48.358
   165.2,0.007753,0.004394,0.092344,0.000091,  48.356
   165.4,0.007772,0.004408,0.092669,0.000091,  48.355
   165.6,0.007794,0.004423,0.093106,0.000070,  48.351
   165.8,0.007819,0.004445,0.093479,0.000091,  48.355
   166.0,0.007835,0.004458,0.093873,0.000091,  48.350
   166.2,0.007849,0.004476,0.094305,0.000070,  48.348
   166.4,0.007867,0.004493,0.094666,0.000091,  48.349
   166.6,0.007876,0.004507,0.095011,0.000091,  48.349
   166.8,0.007891,0.004527,0.095332,0.000070,  48.347
   167.0,0.007908,0.004539,0.095670,0.000091,  48.343
   167.2,0.007910,0.004547,0.096022,0.000091,  48.344
   167.4,0.007903,0.004562,0.096360,0.000070,  48.338
   167.6,0.007898,0.004569,0.096650,0.000091,  48.338
   167.8,0.007886,0.004571,0.096906,0.000091,  48.341
   168.0,0.007893,0.004584,0.097139,0.000070,  48.339
   168.2,0.007898,0.004592,0.097365,0.000091,  48.340
   168.4,0.007907,0.004595,0.097578,0.000091,  48.347
   168.6,0.007917,0.004599,0.097768,0.000070,  48.344
   168.8,0.007932,0.004602,0.097943,0.000091,  48.336
   169.0,0.007946,0.004604,0.098104,0.000105,  48.327
   169.2,0.007953,0.004607,0.098249,0.000070,  48.327
   169.4,0.007958,0.004603,0.098396,0.000105,  48.324
   169.6,0.007963,0.004608,0.098525,0.000119,  48.321
   169.8,0.007968,0.004613,0.098657,0.000070,  48.316
   170.0,0.007968,0.004622,0.098779,0.000105,  48.310
   170.2,0.007968,0.004624,0.098902,0.000119,  48.311
   170.4,0.007965,0.004632,0.099010,0.000070,  48.309
   170.6,0.007963,0.004636,0.099128,0.000105,  48.311
   170.8,0.007956,0.004637,0.099247,0.000091,  48.309
   171.0,0.007956,0.004639,0.099368,0.000028,  48.306
   171.2,0.007958,0.004640,0.099424,0.000035,  48.306
   171.4,0.007961,0.004641,0.099439,0.000021,  48.306
   171.6,0.007970,0.004645,0.099422,-0.000014,  48.303
   171.8,0.007992,0.004645,0.099416,0.000035,  48.285
   172.0,0.008016,0.004643,0.099397,0.000049,  48.284
   172.2,0.008033,0.004641,0.099363,0.000014,  48.280
   172.4,0.008048,0.004637,0.099319,0.000049,  48.277
   172.6,0.008057,0.004641,0.099266,0.000063,  48.271
   172.8,0.008067,0.004650,0.099196,0.000042,  48.266
   173.0,0.008077,0.004670,0.099065,0.000077,  48.267
   173.2,0.008087,0.004679,0.098895,0.000091,  48.266
   173.4,0.008086,0.004691,0.098699,0.000077,  48.268
   173.6,0.008094,0.004704,0.098454,0.000091,  48.263
   173.8,0.008104,0.004708,0.098371,0.000077,  48.263
   174.0,0.008103,0.004715,0.098330,0.000042,  48.256
   174.2,0.008110,0.004721,0.098329,0.000077,  48.260
   174.4,0.008123,0.004728,0.098433,0.000077,  48.259
   174.6,0.008125,0.004730,0.098616,0.000077,  48.257
   174.8,0.008127,0.004732,0.098875,0.000056,  48.258
   175.0,0.008133,0.004732,0.099020,0.000091,  48.254
   175.2,0.008130,0.004731,0.099141,0.000091,  48.255
   175.4,0.008130,0.004739,0.099256,0.000070,  48.253
   175.6,0.008125,0.004746,0.099328,0.000091,  48.251
   175.8,0.008107,0.004749,0.099363,0.000091,  48.244
   176.0,0.008088,0.004751,0.099379,0.000070,  48.242
   176.2,0.008062,0.004752,0.099403,0.000091,  48.245
   176.4,0.008049,0.004754,0.099403,0.000091,  48.245
   176.6,0.008046,0.004756,0.099392,0.000070,  48.244
   176.8,0.008057,0.004757,0.099425,0.000091,  48.250
   177.0,0.008057,0.004757,0.099471,0.000091,  48.249
   177.2,0.008057,0.004754,0.099519,0.000070,  48.247
   177.4,0.008059,0.004747,0.099477,0.000091,  48.242
   177.6,0.008062,0.004743,0.099391,0.000091,  48.230
   177.8,0.008062,0.004740,0.099261,0.000070,  48.233
   178.0,0.008055,0.004735,0.099163,0.000091,  48.228
   178.2,0.008045,0.004735,0.099056,0.000091,  48.223
   178.4,0.008043,0.004733,0.098941,0.000070,  48.224
   178.6,0.008034,0.004733,0.098896,0.000091,  48.220
   178.8,0.008019,0.004735,0.098882,0.000091,  48.219
   179.0,0.008004,0.004735,0.098889,0.000056,  48.213
   179.2,0.007987,0.004735,0.098826,0.000063,  48.215
   179.4,0.007968,0.004733,0.098747,0.000049,  48.209
   179.6,0.007956,0.004726,0.098642,0.000014,  48.206
   179.8,0.007949,0.004721,0.098471,0.000021,  48.207
   180.0,0.007946,0.004718,0.098262,0.000035,  48.202
   180.2,0.007949,0.004707,0.098015,0.000000,  48.199
   180.4,0.007956,0.004705,0.097764,0.000049,  48.202
   180.6,0.007965,0.004698,0.097493,0.000063,  48.195
   180.8,0.007973,0.004686,0.097207,0.000028,  48.195
   181.0,0.007975,0.004678,0.096988,0.000049,  48.192
   181.2,0.007973,0.004679,0.096782,0.000049,  48.191
   181.4,0.007973,0.004683,0.096604,0.000028,  48.174
   181.6,0.007973,0.004692,0.096248,0.000063,  48.174
   181.8,0.007965,0.004697,0.095819,0.000063,  48.169
   182.0,0.007958,0.004697,0.095307,0.000042,  48.163
   182.2,0.007953,0.004698,0.095108,0.000077,  48.165
   182.4,0.007946,0.004700,0.095031,0.000077,  48.163
   182.6,0.007938,0.004698,0.095068,0.000056,  48.160
   182.8,0.007929,0.004699,0.094992,0.000091,  48.158
   183.0,0.007925,0.004700,0.094930,0.000091,  48.152
   183.2,0.007918,0.004694,0.094863,0.000105,  48.148
   183.4,0.007908,0.004694,0.094800,0.000091,  48.152
   183.6,0.007898,0.004694,0.094759,0.000091,  48.151
   183.8,0.007885,0.004687,0.094720,0.000056,  48.149
   184.0,0.007873,0.004687,0.094688,0.000091,  48.146
   184.2,0.007859,0.004683,0.094582,0.000091,  48.148
   184.4,0.007831,0.004680,0.094447,0.000105,  48.144
   184.6,0.007802,0.004682,0.094271,0.000070,  48.142
   184.8,0.007769,0.004677,0.094108,0.000105,  48.137
   185.0,0.007752,0.004673,0.093933,0.000119,  48.141
   185.2,0.007743,0.004668,0.093743,0.000070,  48.142
   185.4,0.007740,0.004663,0.093533,0.000105,  48.149
   185.6,0.007733,0.004654,0.093300,0.000119,  48.150
   185.8,0.007726,0.004646,0.093056,0.000084,  48.145
   186.0,0.007721,0.004636,0.092828,0.000119,  48.139
   186.2,0.007711,0.004625,0.092598,0.000133,  48.136
   186.4,0.007694,0.004614,0.092370,0.000098,  48.132
   186.6,0.007675,0.004602,0.092158,0.000133,  48.128
   186.8,0.007661,0.004596,0.091964,0.000147,  48.129
   187.0,0.007648,0.004589,0.091781,0.000098,  48.131
   187.2,0.007632,0.004585,0.091591,0.000133,  48.134
   187.4,0.007619,0.004578,0.091409,0.000147,  48.130
   187.6,0.007598,0.004568,0.091239,0.000084,  48.131
   187.8,0.007571,0.004558,0.091022,0.000105,  48.127
   188.0,0.007540,0.004551,0.090793,0.000105,  48.129
   188.2,0.007520,0.004542,0.090536,0.000056,  48.127
   188.4,0.007504,0.004533,0.090261,0.000063,  48.128
   188.6,0.007491,0.004523,0.089969,0.000063,  48.127
   188.8,0.007484,0.004508,0.089659,0.000042,  48.123
   189.0,0.007479,0.004496,0.089316,0.000063,  48.123
   189.2,0.007479,0.004480,0.088944,0.000063,  48.121
   189.4,0.007472,0.004468,0.088557,0.000056,  48.122
   189.6,0.007463,0.004457,0.088209,0.000091,  48.121
   189.8,0.007450,0.004452,0.087867,0.000105,  48.120
   190.0,0.007438,0.004452,0.087542,0.000070,  48.118
   190.2,0.007426,0.004454,0.087115,0.000105,  48.117
   190.4,0.007407,0.004450,0.086650,0.000119,  48.120
   190.6,0.007390,0.004443,0.086140,0.000084,  48.122
   190.8,0.007368,0.004438,0.085846,0.000119,  48.114
   191.0,0.007349,0.004429,0.085641,0.000133,  48.114
   191.2,0.007332,0.004420,0.085517,0.000098,  48.114
   191.4,0.007307,0.004409,0.085306,0.000119,  48.108
   191.6,0.007295,0.004395,0.085094,0.000133,  48.112
   191.8,0.007279,0.004390,0.084876,0.000098,  48.107
   192.0,0.007254,0.004379,0.084656,0.000133,  48.104
   192.2,0.007240,0.004366,0.084450,0.000147,  48.099
   192.4,0.007218,0.004357,0.084232,0.000098,  48.106
   192.6,0.007194,0.004346,0.084023,0.000133,  48.100
   192.8,0.007173,0.004332,0.083824,0.000133,  48.105
   193.0,0.007144,0.004325,0.083628,0.000133,  48.101
   193.2,0.007108,0.004310,0.083437,0.000133,  48.099
   193.4,0.007064,0.004295,0.083187,0.000119,  48.102
   193.6,0.007046,0.004285,0.082921,0.000084,  48.100
   193.8,0.007026,0.004276,0.082641,0.000119,  48.111
   194.0,0.007010,0.004264,0.082337,0.000119,  48.117
   194.2,0.007001,0.004252,0.082021,0.000133,  48.120
   194.4,0.006984,0.004240,0.081689,0.000098,  48.113
   194.6,0.006961,0.004227,0.081377,0.000119,  48.105
   194.8,0.006942,0.004207,0.081070,0.000133,  48.102
   195.0,0.006920,0.004195,0.080776,0.000084,  48.099
   195.2,0.006891,0.004177,0.080472,0.000105,  48.101
   195.4,0.006867,0.004161,0.080162,0.000105,  48.091
   195.6,0.006843,0.004151,0.079859,0.000056,  48.097
   195.8,0.006814,0.004142,0.079646,0.000077,  48.097
   196.0,0.006785,0.004128,0.079476,0.000077,  48.097
   196.2,0.006752,0.004115,0.079348,0.000042,  48.093
   196.4,0.006713,0.004101,0.079064,0.000077,  48.093
   196.6,0.006689,0.004088,0.078721,0.000063,  48.093
   196.8,0.006675,0.004074,0.078326,0.000049,  48.099
   197.0,0.006663,0.004059,0.077954,0.000070,  48.095
   197.2,0.006661,0.004045,0.077564,0.000070,  48.096
   197.4,0.006646,0.004030,0.077151,0.000070,  48.095
   197.6,0.006631,0.004017,0.076771,0.000084,  48.095
   197.8,0.006625,0.004003,0.076392,0.000098,  48.091
   198.0,0.006605,0.003988,0.076013,0.000112,  48.095
   198.2,0.006591,0.003968,0.075598,0.000098,  48.097
   198.4,0.006575,0.003956,0.075170,0.000098,  48.097
   198.6,0.006552,0.003951,0.074722,0.000112,  48.093
   198.8,0.006538,0.003944,0.074286,0.000112,  48.088
   199.0,0.006519,0.003933,0.073855,0.000112,  48.096
   199.2,0.006495,0.003926,0.073422,0.000112,  48.092
   199.4,0.006478,0.003915,0.073075,0.000112,  48.089
   199.6,0.006459,0.003907,0.072777,0.000112,  48.090
   199.8,0.006434,0.003898,0.072519,0.000077,  48.093
   200.0,0.006418,0.003888,0.072232,0.000077,  48.095
   200.2,0.006396,0.003877,0.071964,0.000077,  48.093
   200.4,0.006372,0.003867,0.071697,0.000042,  48.096
   200.6,0.006355,0.003854,0.071428,0.000077,  48.099
   200.8,0.006331,0.003840,0.071178,0.000077,  48.102
   201.0,0.006302,0.003827,0.070920,0.000042,  48.102
   201.2,0.006283,0.003817,0.070607,0.000077,  48.100
   201.4,0.006259,0.003801,0.070264,0.000077,  48.101
   201.6,0.006222,0.003788,0.069896,0.000042,  48.105
   201.8,0.006184,0.003778,0.069559,0.000077,  48.108
   202.0,0.006143,0.003763,0.069218,0.000077,  48.112
   202.2,0.006114,0.003755,0.068877,0.000042,  48.113
   202.4,0.006094,0.003739,0.068606,0.000077,  48.127
   202.6,0.006083,0.003721,0.068377,0.000077,  48.134
   202.8,0.006063,0.003702,0.068179,0.000077,  48.141
   203.0,0.006044,0.003683,0.068014,0.000077,  48.125
   203.2,0.006032,0.003665,0.067741,0.000077,  48.124
   203.4,0.006008,0.003651,0.067454,0.000042,  48.121
   203.6,0.005986,0.003637,0.067139,0.000077,  48.118
   203.8,0.005965,0.003628,0.066845,0.000077,  48.119
   204.0,0.005936,0.003614,0.066550,0.000077,  48.117
   204.2,0.005911,0.003613,0.066252,0.000077,  48.122
   204.4,0.005890,0.003607,0.066006,0.000098,  48.122
   204.6,0.005856,0.003596,0.065788,0.000084,  48.124
   204.8,0.005823,0.003584,0.065594,0.000084,  48.127
   205.0,0.005794,0.003570,0.065296,0.000070,  48.125
   205.2,0.005767,0.003557,0.064964,0.000056,  48.126
   205.4,0.005748,0.003539,0.064602,0.000042,  48.129
   205.6,0.005739,0.003526,0.064289,0.000028,  48.135
   205.8,0.005717,0.003510,0.063985,0.000042,  48.132
   206.0,0.005702,0.003498,0.063691,0.000056,  48.138
   206.2,0.005696,0.003484,0.063310,0.000056,  48.136
   206.4,0.005681,0.003467,0.062896,0.000070,  48.135
   206.6,0.005666,0.003457,0.062433,0.000070,  48.138
   206.8,0.005652,0.003449,0.062044,0.000056,  48.140
   207.0,0.005648,0.003436,0.061674,0.000070,  48.139
   207.2,0.005628,0.003429,0.061318,0.000070,  48.142
   207.4,0.005606,0.003424,0.060902,0.000070,  48.141
   207.6,0.005592,0.003411,0.060468,0.000084,  48.143
   207.8,0.005568,0.003405,0.060018,0.000084,  48.147
   208.0,0.005548,0.003396,0.059735,0.000084,  48.147
   208.2,0.005527,0.003382,0.059527,0.000098,  48.146
   208.4,0.005500,0.003374,0.059398,0.000112,  48.149
   208.6,0.005481,0.003367,0.059150,0.000098,  48.149
   208.8,0.005463,0.003357,0.058881,0.000098,  48.149
   209.0,0.005433,0.003345,0.058578,0.000112,  48.151
   209.2,0.005412,0.003332,0.058302,0.000098,  48.146
   209.4,0.005391,0.003322,0.058030,0.000098,  48.146
   209.6,0.005363,0.003308,0.057749,0.000112,  48.150
   209.8,0.005337,0.003293,0.057451,0.000098,  48.152
   210.0,0.005318,0.003276,0.057146,0.000098,  48.151
   210.2,0.005284,0.003264,0.056823,0.000112,  48.149
   210.4,0.005248,0.003253,0.056516,0.000112,  48.151
   210.6,0.005213,0.003241,0.056217,0.000112,  48.155
   210.8,0.005183,0.003230,0.055915,0.000112,  48.159
   211.0,0.005159,0.003216,0.055624,0.000112,  48.167
   211.2,0.005146,0.003198,0.055346,0.000112,  48.174
   211.4,0.005121,0.003183,0.055069,0.000112,  48.174
   211.6,0.005102,0.003161,0.054707,0.000112,  48.161
   211.8,0.005088,0.003142,0.054311,0.000112,  48.155
   212.0,0.005061,0.003127,0.053864,0.000077,  48.154
   212.2,0.005035,0.003114,0.053610,0.000077,  48.152
   212.4,0.005011,0.003096,0.053439,0.000112,  48.148
   212.6,0.004982,0.003084,0.053334,0.000112,  48.153
   212.8,0.004958,0.003075,0.053308,0.000112,  48.160
   213.0,0.004939,0.003059,0.053139,0.000112,  48.159
   213.2,0.004905,0.003050,0.052959,0.000098,  48.157
   213.4,0.004874,0.003036,0.052758,0.000084,  48.161
   213.6,0.004846,0.003026,0.052520,0.000070,  48.162
   213.8,0.004819,0.003010,0.052254,0.000056,  48.162
   214.0,0.004799,0.003003,0.051957,0.000056,  48.167
   214.2,0.004786,0.002991,0.051645,0.000056,  48.168
   214.4,0.004766,0.002974,0.051313,0.000070,  48.169
   214.6,0.004747,0.002961,0.050960,0.000070,  48.170
   214.8,0.004735,0.002942,0.050616,0.000070,  48.171
   215.0,0.004713,0.002924,0.050264,0.000070,  48.175
   215.2,0.004699,0.002912,0.049898,0.000070,  48.178
   215.4,0.004685,0.002898,0.049574,0.000070,  48.179
   215.6,0.004661,0.002887,0.049261,0.000084,  48.181
   215.8,0.004647,0.002876,0.048962,0.000084,  48.185
   216.0,0.004628,0.002867,0.048627,0.000084,  48.187
   216.2,0.004609,0.002853,0.048278,0.000098,  48.191
   216.4,0.004591,0.002846,0.047919,0.000098,  48.193
   216.6,0.004580,0.002836,0.047622,0.000084,  48.197
   216.8,0.004566,0.002820,0.047352,0.000084,  48.198
   217.0,0.004541,0.002814,0.047098,0.000084,  48.199
   217.2,0.004525,0.002802,0.046782,0.000084,  48.197
   217.4,0.004501,0.002790,0.046456,0.000084,  48.203
   217.6,0.004474,0.002779,0.046106,0.000084,  48.202
   217.8,0.004458,0.002769,0.045857,0.000084,  48.203
   218.0,0.004434,0.002757,0.045658,0.000084,  48.204
   218.2,0.004407,0.002748,0.045500,0.000084,  48.204
   218.4,0.004391,0.002739,0.045299,0.000084,  48.211
   218.6,0.004367,0.002727,0.045101,0.000084,  48.209
   218.8,0.004335,0.002716,0.044895,0.000098,  48.207
   219.0,0.004312,0.002700,0.044675,0.000098,  48.211
   219.2,0.004278,0.002684,0.044449,0.000098,  48.213
   219.4,0.004249,0.002674,0.044210,0.000112,  48.222
   219.6,0.004232,0.002663,0.043971,0.000098,  48.240
   219.8,0.004213,0.002645,0.043723,0.000098,  48.251
   220.0,0.004186,0.002626,0.043480,0.000112,  48.245
   220.2,0.004175,0.002608,0.043209,0.000098,  48.239
   220.4,0.004156,0.002590,0.042917,0.000098,  48.238
   220.6,0.004129,0.002578,0.042614,0.000112,  48.236
   220.8,0.004113,0.002562,0.042409,0.000098,  48.245
   221.0,0.004086,0.002546,0.042247,0.000098,  48.245
   221.2,0.004057,0.002540,0.042126,0.000112,  48.249
   221.4,0.004041,0.002529,0.041919,0.000112,  48.251
   221.6,0.004015,0.002511,0.041691,0.000098,  48.249
   221.8,0.003983,0.002500,0.041437,0.000084,  48.252
   222.0,0.003959,0.002486,0.041222,0.000070,  48.253
   222.2,0.003928,0.002468,0.041010,0.000056,  48.256
   222.4,0.003904,0.002457,0.040805,0.000035,  48.255
   222.6,0.003890,0.002446,0.040602,0.000035,  48.261
   222.8,0.003871,0.002433,0.040355,0.000070,  48.261
   223.0,0.003851,0.002415,0.040083,0.000084,  48.261
   223.2,0.003845,0.002403,0.039802,0.000084,  48.264
   223.4,0.003828,0.002391,0.039549,0.000070,  48.264
   223.6,0.003806,0.002379,0.039298,0.000084,  48.267
   223.8,0.003792,0.002370,0.039058,0.000084,  48.269
   224.0,0.003770,0.002359,0.038800,0.000084,  48.270
   224.2,0.003746,0.002345,0.038530,0.000098,  48.271
   224.4,0.003732,0.002332,0.038253,0.000112,  48.266
   224.6,0.003718,0.002324,0.037950,0.000098,  48.269
   224.8,0.003694,0.002310,0.037629,0.000098,  48.265
   225.0,0.003672,0.002303,0.037285,0.000112,  48.268
   225.2,0.003654,0.002300,0.037068,0.000098,  48.265
   225.4,0.003632,0.002289,0.036904,0.000098,  48.263
   225.6,0.003612,0.002276,0.036790,0.000112,  48.264
   225.8,0.003599,0.002266,0.036599,0.000098,  48.265
   226.0,0.003582,0.002253,0.036402,0.000098,  48.261
   226.2,0.003568,0.002241,0.036189,0.000112,  48.262
   226.4,0.003550,0.002233,0.035902,0.000098,  48.252
   226.6,0.003541,0.002218,0.035570,0.000098,  48.257
   226.8,0.003517,0.002208,0.035192,0.000112,  48.261
   227.0,0.003495,0.002197,0.034947,0.000112,  48.260
   227.2,0.003469,0.002181,0.034744,0.000112,  48.255
   227.4,0.003440,0.002174,0.034589,0.000112,  48.261
   227.6,0.003416,0.002168,0.034412,0.000112,  48.258
   227.8,0.003391,0.002150,0.034237,0.000112,  48.260
   228.0,0.003364,0.002138,0.034074,0.000112,  48.261
   228.2,0.003342,0.002127,0.033884,0.000098,  48.265
   228.4,0.003323,0.002110,0.033690,0.000098,  48.272
   228.6,0.003301,0.002092,0.033482,0.000112,  48.259
   228.8,0.003287,0.002075,0.033252,0.000112,  48.257
   229.0,0.003270,0.002056,0.033013,0.000112,  48.246
   229.2,0.003248,0.002042,0.032752,0.000112,  48.248
   229.4,0.003237,0.002030,0.032561,0.000112,  48.241
   229.6,0.003218,0.002014,0.032406,0.000112,  48.244
   229.8,0.003196,0.002009,0.032276,0.000112,  48.243
   230.0,0.003177,0.002003,0.032040,0.000112,  48.247
   230.2,0.003157,0.001990,0.031756,0.000098,  48.251
   230.4,0.003131,0.001980,0.031436,0.000084,  48.250
   230.6,0.003112,0.001972,0.031139,0.000070,  48.248
   230.8,0.003097,0.001957,0.030829,0.000056,  48.250
   231.0,0.003074,0.001947,0.030506,0.000056,  48.254
   231.2,0.003060,0.001940,0.030308,0.000056,  48.255
   231.4,0.003056,0.001925,0.030157,0.000070,  48.253
   231.6,0.003039,0.001913,0.030063,0.000070,  48.249
   231.8,0.003029,0.001901,0.029928,0.000070,  48.249
   232.0,0.003020,0.001887,0.029797,0.000070,  48.250
   232.2,0.003000,0.001877,0.029666,0.000049,  48.250
   232.4,0.002984,0.001872,0.029539,0.000049,  48.253
   232.6,0.002970,0.001863,0.029369,0.000084,  48.249
   232.8,0.002948,0.001857,0.029185,0.000098,  48.247
   233.0,0.002931,0.001852,0.028984,0.000084,  48.253
   233.2,0.002917,0.001845,0.028783,0.000084,  48.257
   233.4,0.002895,0.001840,0.028578,0.000084,  48.258
   233.6,0.002879,0.001833,0.028356,0.000084,  48.265
   233.8,0.002865,0.001827,0.028158,0.000084,  48.263
   234.0,0.002843,0.001817,0.027964,0.000084,  48.263
   234.2,0.002828,0.001808,0.027782,0.000084,  48.264
   234.4,0.002817,0.001794,0.027638,0.000084,  48.268
   234.6,0.002795,0.001785,0.027516,0.000084,  48.268
   234.8,0.002776,0.001774,0.027428,0.000084,  48.266
   235.0,0.002765,0.001765,0.027248,0.000084,  48.263
   235.2,0.002742,0.001753,0.027034,0.000084,  48.264
   235.4,0.002721,0.001744,0.026791,0.000084,  48.266
   235.6,0.002705,0.001730,0.026607,0.000084,  48.265
   235.8,0.002686,0.001716,0.026433,0.000084,  48.267
   236.0,0.002669,0.001710,0.026280,0.000098,  48.266
   236.2,0.002647,0.001699,0.026110,0.000098,  48.265
   236.4,0.002636,0.001687,0.025926,0.000098,  48.270
   236.6,0.002616,0.001682,0.025747,0.000112,  48.271
   236.8,0.002597,0.001673,0.025600,0.000098,  48.279
   237.0,0.002586,0.001657,0.025466,0.000098,  48.280
   237.2,0.002566,0.001643,0.025346,0.000112,  48.274
   237.4,0.002554,0.001622,0.025194,0.000098,  48.274
   237.6,0.002537,0.001610,0.025032,0.000098,  48.264
   237.8,0.002517,0.001596,0.024849,0.000112,  48.260
   238.0,0.002511,0.001586,0.024692,0.000098,  48.260
   238.2,0.002494,0.001574,0.024551,0.000098,  48.258
   238.4,0.002475,0.001565,0.024404,0.000112,  48.256
   238.6,0.002466,0.001565,0.024190,0.000098,  48.253
   238.8,0.002449,0.001556,0.023940,0.000084,  48.245
   239.0,0.002427,0.001544,0.023652,0.000084,  48.255
   239.2,0.002413,0.001542,0.023486,0.000056,  48.249
   239.4,0.002394,0.001535,0.023356,0.000056,  48.252
   239.6,0.002374,0.001526,0.023258,0.000056,  48.248
   239.8,0.002363,0.001517,0.023129,0.000056,  48.256
   240.0,0.002351,0.001504,0.023005,0.000070,  48.253
   240.2,0.002334,0.001496,0.022880,0.000070,  48.252
   240.4,0.002325,0.001484,0.022686,0.000070,  48.247
   240.6,0.002311,0.001471,0.022456,0.000070,  48.244
   240.8,0.002293,0.001467,0.022199,0.000070,  48.251
   241.0,0.002284,0.001464,0.022021,0.000070,  48.252
   241.2,0.002268,0.001453,0.021865,0.000070,  48.249
   241.4,0.002250,0.001448,0.021727,0.000070,  48.242
   241.6,0.002241,0.001441,0.021576,0.000070,  48.238
   241.8,0.002227,0.001430,0.021425,0.000070,  48.245
   242.0,0.002210,0.001423,0.021266,0.000035,  48.243
   242.2,0.002201,0.001415,0.021152,0.000049,  48.237
   242.4,0.002189,0.001406,0.021057,0.000070,  48.244
   242.6,0.002172,0.001396,0.020985,0.000084,  48.240
   242.8,0.002163,0.001390,0.020931,0.000084,  48.236
   243.0,0.002148,0.001381,0.020810,0.000084,  48.237
   243.2,0.002131,0.001372,0.020675,0.000098,  48.238
   243.4,0.002125,0.001368,0.020527,0.000098,  48.238
   243.6,0.002108,0.001359,0.020379,0.000084,  48.239
   243.8,0.002086,0.001350,0.020215,0.000084,  48.237
   244.0,0.002074,0.001341,0.020050,0.000084,  48.234
   244.2,0.002061,0.001336,0.019920,0.000084,  48.238
   244.4,0.002039,0.001327,0.019807,0.000084,  48.239
   244.6,0.002020,0.001318,0.019704,0.000098,  48.237
   244.8,0.002001,0.001309,0.019505,0.000098,  48.242
   245.0,0.001981,0.001302,0.019258,0.000098,  48.241
   245.2,0.001977,0.001295,0.018967,0.000112,  48.249
   245.4,0.001962,0.001286,0.018812,0.000098,  48.252
   245.6,0.001947,0.001272,0.018703,0.000098,  48.256
   245.8,0.001943,0.001257,0.018631,0.000112,  48.249
   246.0,0.001934,0.001244,0.018541,0.000098,  48.242
   246.2,0.001924,0.001234,0.018468,0.000098,  48.240
   246.4,0.001914,0.001225,0.018403,0.000112,  48.239
   246.6,0.001905,0.001215,0.018312,0.000098,  48.235
   246.8,0.001897,0.001214,0.018215,0.000098,  48.235
   247.0,0.001885,0.001210,0.018109,0.000098,  48.240
   247.2,0.001878,0.001205,0.018025,0.000084,  48.237
   247.4,0.001870,0.001200,0.017952,0.000070,  48.235
   247.6,0.001852,0.001197,0.017890,0.000070,  48.243
   247.8,0.001846,0.001190,0.017778,0.000056,  48.238
   248.0,0.001829,0.001181,0.017636,0.000056,  48.242
   248.2,0.001812,0.001175,0.017476,0.000056,  48.242
   248.4,0.001810,0.001171,0.017355,0.000056,  48.248
   248.6,0.001803,0.001162,0.017239,0.000084,  48.246
   248.8,0.001788,0.001151,0.017128,0.000084,  48.246
   249.0,0.001778,0.001144,0.016986,0.000084,  48.250
   249.2,0.001771,0.001136,0.016835,0.000084,  48.254
   249.4,0.001759,0.001133,0.016664,0.000084,  48.250
   249.6,0.001744,0.001129,0.016552,0.000105,  48.254
   249.8,0.001735,0.001124,0.016458,0.000105,  48.252
   250.0,0.001720,0.001120,0.016388,0.000070,  48.250
   250.2,0.001711,0.001115,0.016247,0.000119,  48.250
   250.4,0.001707,0.001105,0.016083,0.000133,  48.252
   250.6,0.001692,0.001100,0.015901,0.000112,  48.248
   250.8,0.001680,0.001096,0.015789,0.000133,  48.251
   251.0,0.001676,0.001089,0.015702,0.000133,  48.254
   251.2,0.001661,0.001078,0.015637,0.000112,  48.255
   251.4,0.001651,0.001075,0.015516,0.000147,  48.253
   251.6,0.001645,0.001072,0.015376,0.000147,  48.252
   251.8,0.001630,0.001066,0.015220,0.000112,  48.256
   252.0,0.001618,0.001057,0.015081,0.000112,  48.253
   252.2,0.001609,0.001054,0.014942,0.000112,  48.253
   252.4,0.001592,0.001046,0.014799,0.000112,  48.251
   252.6,0.001578,0.001043,0.014656,0.000112,  48.255
   252.8,0.001564,0.001033,0.014553,0.000112,  48.254
   253.0,0.001542,0.001023,0.014462,0.000112,  48.252
   253.2,0.001525,0.001020,0.014396,0.000112,  48.254
   253.4,0.001514,0.001015,0.014331,0.000112,  48.255
   253.6,0.001497,0.001011,0.014271,0.000112,  48.261
   253.8,0.001490,0.001008,0.014230,0.000126,  48.265
   254.0,0.001488,0.001004,0.014097,0.000126,  48.269
   254.2,0.001476,0.000992,0.013917,0.000126,  48.271
   254.4,0.001466,0.000985,0.013698,0.000140,  48.259
   254.6,0.001457,0.000971,0.013616,0.000126,  48.255
   254.8,0.001442,0.000963,0.013576,0.000126,  48.252
   255.0,0.001432,0.000947,0.013583,0.000140,  48.252
   255.2,0.001426,0.000938,0.013564,0.000126,  48.251
   255.4,0.001411,0.000933,0.013549,0.000126,  48.251
   255.6,0.001401,0.000922,0.013547,0.000140,  48.258
   255.8,0.001395,0.000921,0.013494,0.000126,  48.257
   256.0,0.001385,0.000920,0.013411,0.000126,  48.256
   256.2,0.001373,0.000911,0.013319,0.000112,  48.253
   256.4,0.001366,0.000906,0.013237,0.000084,  48.252
   256.6,0.001366,0.000905,0.013147,0.000084,  48.255
   256.8,0.001356,0.000900,0.013056,0.000084,  48.255
   257.0,0.001349,0.000891,0.012948,0.000084,  48.252
   257.2,0.001347,0.000884,0.012819,0.000084,  48.254
   257.4,0.001337,0.000879,0.012678,0.000098,  48.249
   257.6,0.001330,0.000878,0.012579,0.000098,  48.251
   257.8,0.001328,0.000869,0.012497,0.000098,  48.246
   258.0,0.001316,0.000865,0.012420,0.000112,  48.252
   258.2,0.001312,0.000866,0.012322,0.000098,  48.251
   258.4,0.001305,0.000862,0.012227,0.000098,  48.252
   258.6,0.001293,0.000858,0.012132,0.000112,  48.248
   258.8,0.001286,0.000855,0.012024,0.000112,  48.253
   259.0,0.001279,0.000850,0.011907,0.000112,  48.249
   259.2,0.001266,0.000846,0.011787,0.000126,  48.255
   259.4,0.001257,0.000837,0.011682,0.000126,  48.245
   259.6,0.001247,0.000826,0.011578,0.000126,  48.247
   259.8,0.001232,0.000823,0.011469,0.000140,  48.251
   260.0,0.001223,0.000819,0.011404,0.000126,  48.247
   260.2,0.001216,0.000812,0.011364,0.000126,  48.246
   260.4,0.001202,0.000801,0.011344,0.000140,  48.250
   260.6,0.001197,0.000798,0.011271,0.000126,  48.247
   260.8,0.001191,0.000793,0.011180,0.000126,  48.248
   261.0,0.001174,0.000784,0.011076,0.000140,  48.244
   261.2,0.001165,0.000779,0.010981,0.000126,  48.240
   261.4,0.001146,0.000776,0.010886,0.000126,  48.238
   261.6,0.001126,0.000767,0.010787,0.000105,  48.246
   261.8,0.001117,0.000759,0.010700,0.000091,  48.246
   262.0,0.001101,0.000757,0.010609,0.000126,  48.248
   262.2,0.001083,0.000752,0.010530,0.000126,  48.256
   262.4,0.001082,0.000743,0.010452,0.000126,  48.260
   262.6,0.001074,0.000733,0.010374,0.000126,  48.266
   262.8,0.001059,0.000727,0.010300,0.000126,  48.252
   263.0,0.001058,0.000717,0.010227,0.000140,  48.256
   263.2,0.001053,0.000707,0.010120,0.000126,  48.250
   263.4,0.001040,0.000703,0.010008,0.000126,  48.254
   263.6,0.001039,0.000692,0.009879,0.000140,  48.251
   263.8,0.001029,0.000687,0.009830,0.000126,  48.258
   264.0,0.001019,0.000679,0.009810,0.000126,  48.259
   264.2,0.001017,0.000674,0.009819,0.000140,  48.260
   264.4,0.001008,0.000671,0.009784,0.000126,  48.261
   264.6,0.000998,0.000663,0.009743,0.000126,  48.266
   264.8,0.000996,0.000656,0.009688,0.000112,  48.266
   265.0,0.000992,0.000653,0.009636,0.000084,  48.269
   265.2,0.000982,0.000648,0.009580,0.000070,  48.267
   265.4,0.000975,0.000646,0.009523,0.000070,  48.269
   265.6,0.000967,0.000646,0.009374,0.000070,  48.273
   265.8,0.000963,0.000637,0.009175,0.000070,  48.270
   266.0,0.000952,0.000633,0.008929,0.000070,  48.271
   266.2,0.000951,0.000628,0.008817,0.000084,  48.270
   266.4,0.000946,0.000623,0.008744,0.000098,  48.268
   266.6,0.000938,0.000616,0.008721,0.000112,  48.271
   266.8,0.000937,0.000617,0.008689,0.000098,  48.272
   267.0,0.000929,0.000614,0.008667,0.000098,  48.273
   267.2,0.000919,0.000612,0.008665,0.000112,  48.271
   267.4,0.000914,0.000609,0.008596,0.000112,  48.278
   267.6,0.000905,0.000603,0.008488,0.000112,  48.275
   267.8,0.000895,0.000600,0.008355,0.000112,  48.270
   268.0,0.000893,0.000594,0.008320,0.000112,  48.274
   268.2,0.000894,0.000589,0.008314,0.000112,  48.276
   268.4,0.000884,0.000584,0.008353,0.000126,  48.276
   268.6,0.000879,0.000581,0.008329,0.000126,  48.278
   268.8,0.000872,0.000571,0.008289,0.000126,  48.280
   269.0,0.000862,0.000570,0.008240,0.000126,  48.279
   269.2,0.000858,0.000568,0.008162,0.000133,  48.279
   269.4,0.000851,0.000565,0.008063,0.000133,  48.279
   269.6,0.000836,0.000561,0.007946,0.000112,  48.280
   269.8,0.000825,0.000556,0.007851,0.000133,  48.278
   270.0,0.000814,0.000549,0.007753,0.000133,  48.274
   270.2,0.000796,0.000547,0.007662,0.000112,  48.273
   270.4,0.000780,0.000549,0.007584,0.000098,  48.273
   270.6,0.000765,0.000542,0.007514,0.000098,  48.275
   270.8,0.000753,0.000539,0.007456,0.000112,  48.279
   271.0,0.000753,0.000535,0.007420,0.000098,  48.285
   271.2,0.000751,0.000528,0.007393,0.000098,  48.284
   271.4,0.000743,0.000518,0.007390,0.000077,  48.274
   271.6,0.000746,0.000502,0.007391,0.000063,  48.269
   271.8,0.000742,0.000490,0.007343,0.000098,  48.258
   272.0,0.000734,0.000483,0.007281,0.000098,  48.253
   272.2,0.000737,0.000474,0.007207,0.000098,  48.252
   272.4,0.000730,0.000469,0.007175,0.000098,  48.249
   272.6,0.000722,0.000467,0.007155,0.000098,  48.240
   272.8,0.000725,0.000472,0.007150,0.000112,  48.240
   273.0,0.000720,0.000468,0.007093,0.000098,  48.232
   273.2,0.000712,0.000470,0.007007,0.000084,  48.236
   273.4,0.000713,0.000464,0.006904,0.000070,  48.237
   273.6,0.000706,0.000466,0.006827,0.000042,  48.240
   273.8,0.000698,0.000460,0.006757,0.000042,  48.241
   274.0,0.000701,0.000462,0.006679,0.000028,  48.239
   274.2,0.000699,0.000460,0.006619,0.000042,  48.236
   274.4,0.000691,0.000456,0.006579,0.000056,  48.237
   274.6,0.000694,0.000450,0.006539,0.000056,  48.237
   274.8,0.000687,0.000456,0.006473,0.000056,  48.235
   275.0,0.000685,0.000456,0.006396,0.000070,  48.232
   275.2,0.000677,0.000449,0.006305,0.000070,  48.235
   275.4,0.000677,0.000449,0.006253,0.000070,  48.237
   275.6,0.000675,0.000448,0.006221,0.000070,  48.236
   275.8,0.000667,0.000442,0.006189,0.000070,  48.230
   276.0,0.000668,0.000438,0.006149,0.000070,  48.236
   276.2,0.000663,0.000435,0.006117,0.000084,  48.233
   276.4,0.000655,0.000434,0.006088,0.000084,  48.234
   276.6,0.000654,0.000432,0.006056,0.000084,  48.236
   276.8,0.000649,0.000434,0.006028,0.000098,  48.236
   277.0,0.000641,0.000431,0.005996,0.000112,  48.237
   277.2,0.000644,0.000429,0.005951,0.000098,  48.237
   277.4,0.000639,0.000429,0.005897,0.000098,  48.233
   277.6,0.000629,0.000428,0.005827,0.000112,  48.232
   277.8,0.000630,0.000420,0.005779,0.000098,  48.233
   278.0,0.000625,0.000418,0.005733,0.000098,  48.224
   278.2,0.000613,0.000417,0.005692,0.000112,  48.208
   278.4,0.000601,0.000417,0.005672,0.000098,  48.211
   278.6,0.000589,0.000418,0.005653,0.000098,  48.204
   278.8,0.000576,0.000412,0.005650,0.000112,  48.202
   279.0,0.000564,0.000409,0.005597,0.000112,  48.198
   279.2,0.000558,0.000402,0.005523,0.000112,  48.203
   279.4,0.000548,0.000402,0.005423,0.000112,  48.207
   279.6,0.000548,0.000402,0.005367,0.000112,  48.213
   279.8,0.000553,0.000395,0.005322,0.000112,  48.213
   280.0,0.000548,0.000392,0.005289,0.000112,  48.196
   280.2,0.000548,0.000381,0.005258,0.000112,  48.191
   280.4,0.000556,0.000377,0.005238,0.000112,  48.181
   280.6,0.000550,0.000374,0.005230,0.000112,  48.179
   280.8,0.000550,0.000369,0.005222,0.000112,  48.183
   281.0,0.000556,0.000366,0.005227,0.000112,  48.182
   281.2,0.000550,0.000366,0.005235,0.000077,  48.179
   281.4,0.000553,0.000371,0.005256,0.000077,  48.182
   281.6,0.000554,0.000371,0.005202,0.000112,  48.181
   281.8,0.000551,0.000368,0.005116,0.000098,  48.181
   282.0,0.000554,0.000373,0.005004,0.000070,  48.181
   282.2,0.000551,0.000371,0.004968,0.000056,  48.182
   282.4,0.000546,0.000371,0.004957,0.000056,  48.182
   282.6,0.000549,0.000369,0.004966,0.000056,  48.179
   282.8,0.000547,0.000367,0.004926,0.000056,  48.179
   283.0,0.000539,0.000369,0.004877,0.000084,  48.178
   283.2,0.000542,0.000363,0.004810,0.000084,  48.175
   283.4,0.000537,0.000367,0.004770,0.000084,  48.170
   283.6,0.000529,0.000365,0.004742,0.000098,  48.172
   283.8,0.000532,0.000367,0.004718,0.000112,  48.174
   284.0,0.000528,0.000373,0.004715,0.000098,  48.174
   284.2,0.000522,0.000366,0.004728,0.000084,  48.178
   284.4,0.000520,0.000364,0.004762,0.000084,  48.175
   284.6,0.000515,0.000364,0.004730,0.000105,  48.170
   284.8,0.000507,0.000363,0.004669,0.000105,  48.174
   285.0,0.000505,0.000357,0.004589,0.000084,  48.173
   285.2,0.000506,0.000360,0.004544,0.000098,  48.173
   285.4,0.000503,0.000358,0.004495,0.000112,  48.171
   285.6,0.000495,0.000358,0.004458,0.000126,  48.172
   285.8,0.000499,0.000357,0.004421,0.000098,  48.170
   286.0,0.000502,0.000355,0.004384,0.000098,  48.174
   286.2,0.000494,0.000351,0.004356,0.000112,  48.173
   286.4,0.000489,0.000352,0.004315,0.000098,  48.174
   286.6,0.000487,0.000352,0.004270,0.000098,  48.177
   286.8,0.000474,0.000350,0.004233,0.000112,  48.178
   287.0,0.000468,0.000348,0.004113,0.000112,  48.173
   287.2,0.000461,0.000347,0.003953,0.000112,  48.180
   287.4,0.000446,0.000346,0.003763,0.000112,  48.180
   287.6,0.000440,0.000347,0.003772,0.000112,  48.183
   287.8,0.000428,0.000344,0.003856,0.000112,  48.189
   288.0,0.000418,0.000340,0.004022,0.000112,  48.198
   288.2,0.000421,0.000337,0.004056,0.000112,  48.202
   288.4,0.000421,0.000327,0.004070,0.000112,  48.202
   288.6,0.000415,0.000324,0.004057,0.000126,  48.191
   288.8,0.000421,0.000316,0.004083,0.000126,  48.184
   289.0,0.000416,0.000307,0.004117,0.000126,  48.179
   289.2,0.000411,0.000300,0.004159,0.000140,  48.183
   289.4,0.000416,0.000296,0.004163,0.000126,  48.176
   289.6,0.000414,0.000287,0.004150,0.000126,  48.181
   289.8,0.000406,0.000288,0.004112,0.000140,  48.179
   290.0,0.000409,0.000287,0.004091,0.000126,  48.177
   290.2,0.000404,0.000282,0.004063,0.000112,  48.177
   290.4,0.000396,0.000287,0.004027,0.000098,  48.178
   290.6,0.000399,0.000287,0.003974,0.000070,  48.176
   290.8,0.000397,0.000285,0.003909,0.000056,  48.184
   291.0,0.000392,0.000285,0.003831,0.000035,  48.178
   291.2,0.000397,0.000282,0.003799,0.000035,  48.183
   291.4,0.000395,0.000280,0.003787,0.000070,  48.177
   291.6,0.000389,0.000277,0.003800,0.000084,  48.181
   291.8,0.000389,0.000273,0.003826,0.000098,  48.174
   292.0,0.000387,0.000273,0.003789,0.000098,  48.172
   292.2,0.000379,0.000272,0.003744,0.000112,  48.177
   292.4,0.000379,0.000274,0.003679,0.000126,  48.172
   292.6,0.000382,0.000274,0.003635,0.000098,  48.173
   292.8,0.000377,0.000270,0.003606,0.000098,  48.168
   293.0,0.000374,0.000269,0.003574,0.000112,  48.167
   293.2,0.000377,0.000271,0.003521,0.000098,  48.164
   293.4,0.000372,0.000271,0.003463,0.000098,  48.163
   293.6,0.000367,0.000269,0.003398,0.000112,  48.161
   293.8,0.000366,0.000274,0.003377,0.000098,  48.161
   294.0,0.000355,0.000272,0.003366,0.000098,  48.161
   294.2,0.000358,0.000274,0.003379,0.000112,  48.158
   294.4,0.000357,0.000271,0.003355,0.000098,  48.155
   294.6,0.000354,0.000269,0.003318,0.000098,  48.155
   294.8,0.000344,0.000269,0.003268,0.000112,  48.158
   295.0,0.000350,0.000266,0.003248,0.000112,  48.154
   295.2,0.000345,0.000265,0.003231,0.000112,  48.153
   295.4,0.000332,0.000261,0.003212,0.000112,  48.153
   295.6,0.000326,0.000258,0.003171,0.000112,  48.154
   295.8,0.000314,0.000249,0.003126,0.000112,  48.154
   296.0,0.000301,0.000245,0.003069,0.000112,  48.157
   296.2,0.000297,0.000245,0.003033,0.000112,  48.155
   296.4,0.000286,0.000241,0.003012,0.000112,  48.164
   296.6,0.000278,0.000238,0.002992,0.000112,  48.177
   296.8,0.000283,0.000241,0.002943,0.000112,  48.184
   297.0,0.000291,0.000236,0.002894,0.000112,  48.167
   297.2,0.000286,0.000230,0.002828,0.000126,  48.161
   297.4,0.000286,0.000220,0.002800,0.000126,  48.149
   297.6,0.000291,0.000214,0.002792,0.000126,  48.144
   297.8,0.000283,0.000209,0.002801,0.000140,  48.139
   298.0,0.000289,0.000204,0.002838,0.000126,  48.141
   298.2,0.000294,0.000201,0.002888,0.000126,  48.131
   298.4,0.000286,0.000201,0.002966,0.000126,  48.128
   298.6,0.000286,0.000201,0.002983,0.000112,  48.106
   298.8,0.000286,0.000197,0.002981,0.000098,  48.109
   299.0,0.000283,0.000197,0.002965,0.000084,  48.101
   299.2,0.000283,0.000197,0.002859,0.000056,  48.096
   299.4,0.000286,0.000197,0.002703,0.000056,  48.099
   299.6,0.000283,0.000195,0.002501,0.000056,  48.094
   299.8,0.000283,0.000197,0.002436,0.000056,  48.095
   300.0,0.000286,0.000196,0.002420,0.000084,  48.090
   300.2,0.000283,0.000198,0.002446,0.000084,  48.086
   300.4,0.000283,0.000195,0.002438,0.000084,  48.084
   300.6,0.000289,0.000193,0.002431,0.000098,  48.081
   300.8,0.000283,0.000193,0.002427,0.000077,  48.083
   301.0,0.000289,0.000194,0.002424,0.000077,  48.083
   301.2,0.000292,0.000192,0.002420,0.000112,  48.082
   301.4,0.000291,0.000195,0.002421,0.000126,  48.086
   301.6,0.000296,0.000197,0.002421,0.000126,  48.083
   301.8,0.000296,0.000195,0.002414,0.000112,  48.082
   302.0,0.000293,0.000199,0.002402,0.000112,  48.079
   302.2,0.000301,0.000202,0.002390,0.000112,  48.083
   302.4,0.000299,0.000204,0.002308,0.000112,  48.081
   302.6,0.000291,0.000208,0.002188,0.000112,  48.083
   302.8,0.000296,0.000214,0.002036,0.000112,  48.082
   303.0,0.000294,0.000214,0.001933,0.000112,  48.086
   303.2,0.000286,0.000212,0.001822,0.000112,  48.082
   303.4,0.000286,0.000214,0.001728,0.000112,  48.087
   303.6,0.000289,0.000217,0.001679,0.000112,  48.083
   303.8,0.000278,0.000215,0.001654,0.000112,  48.083
   304.0,0.000271,0.000219,0.001658,0.000126,  48.080
   304.2,0.000267,0.000217,0.001700,0.000126,  48.082
   304.4,0.000257,0.000213,0.001770,0.000126,  48.086
   304.6,0.000252,0.000217,0.001869,0.000140,  48.081
   304.8,0.000251,0.000219,0.001923,0.000126,  48.093
   305.0,0.000248,0.000215,0.001968,0.000126,  48.105
   305.2,0.000251,0.000215,0.002001,0.000140,  48.112
   305.4,0.000253,0.000215,0.002022,0.000126,  48.125
   305.6,0.000263,0.000208,0.002030,0.000126,  48.116
   305.8,0.000262,0.000208,0.002026,0.000140,  48.103
   306.0,0.000265,0.000201,0.002063,0.000126,  48.098
   306.2,0.000267,0.000197,0.002117,0.000140,  48.104
   306.4,0.000264,0.000199,0.002188,0.000140,  48.105
   306.6,0.000264,0.000201,0.002212,0.000140,  48.106
   306.8,0.000264,0.000201,0.002224,0.000154,  48.113
   307.0,0.000263,0.000204,0.002223,0.000140,  48.120
   307.2,0.000271,0.000207,0.002231,0.000140,  48.121
   307.4,0.000274,0.000209,0.002231,0.000140,  48.126
   307.6,0.000271,0.000211,0.002224,0.000112,  48.128
   307.8,0.000278,0.000209,0.002220,0.000084,  48.135
   308.0,0.000286,0.000211,0.002216,0.000084,  48.138
   308.2,0.000283,0.000211,0.002216,0.000098,  48.139
   308.4,0.000283,0.000211,0.002209,0.000098,  48.142
   308.6,0.000289,0.000211,0.002192,0.000098,  48.148
   308.8,0.000283,0.000216,0.002172,0.000126,  48.162
   309.0,0.000289,0.000221,0.002152,0.000126,  48.169
   309.2,0.000292,0.000221,0.002127,0.000140,  48.169
   309.4,0.000289,0.000220,0.002102,0.000140,  48.174
   309.6,0.000284,0.000218,0.002102,0.000140,  48.172
   309.8,0.000279,0.000220,0.002111,0.000154,  48.181
   310.0,0.000274,0.000220,0.002135,0.000140,  48.183
   310.2,0.000269,0.000222,0.002160,0.000140,  48.182
   310.4,0.000270,0.000218,0.002194,0.000154,  48.187
   310.6,0.000262,0.000220,0.002231,0.000154,  48.183
   310.8,0.000259,0.000220,0.002185,0.000154,  48.187
   311.0,0.000262,0.000218,0.002103,0.000154,  48.185
   311.2,0.000257,0.000220,0.001979,0.000133,  48.189
   311.4,0.000255,0.000219,0.001814,0.000133,  48.191
   311.6,0.000257,0.000215,0.001802,0.000168,  48.193
   311.8,0.000254,0.000215,0.001835,0.000182,  48.194
   312.0,0.000257,0.000209,0.001897,0.000168,  48.194
   312.2,0.000257,0.000210,0.001951,0.000168,  48.198
   312.4,0.000249,0.000208,0.002017,0.000182,  48.201
   312.6,0.000245,0.000211,0.002096,0.000168,  48.197
   312.8,0.000236,0.000210,0.002084,0.000168,  48.203
   313.0,0.000228,0.000213,0.002038,0.000182,  48.196
   313.2,0.000226,0.000205,0.001955,0.000168,  48.201
   313.4,0.000221,0.000208,0.001931,0.000168,  48.201
   313.6,0.000216,0.000206,0.001914,0.000182,  48.204
   313.8,0.000229,0.000204,0.001910,0.000168,  48.216
   314.0,0.000235,0.000208,0.001902,0.000168,  48.217
   314.2,0.000232,0.000198,0.001894,0.000182,  48.206
   314.4,0.000244,0.000194,0.001898,0.000168,  48.195
   314.6,0.000249,0.000191,0.001898,0.000168,  48.190
   314.8,0.000246,0.000187,0.001890,0.000182,  48.188
   315.0,0.000251,0.000187,0.001898,0.000168,  48.183
   315.2,0.000249,0.000196,0.001922,0.000168,  48.180
   315.4,0.000249,0.000198,0.001950,0.000182,  48.181
   315.6,0.000249,0.000198,0.001991,0.000168,  48.175
   315.8,0.000243,0.000200,0.002028,0.000168,  48.174
   316.0,0.000239,0.000200,0.002057,0.000168,  48.174
   316.2,0.000233,0.000200,0.002087,0.000140,  48.175
   316.4,0.000231,0.000200,0.001980,0.000098,  48.168
   316.6,0.000232,0.000200,0.001803,0.000098,  48.169
   316.8,0.000224,0.000198,0.001556,0.000126,  48.170
   317.0,0.000227,0.000198,0.001544,0.000126,  48.167
   317.2,0.000230,0.000198,0.001618,0.000140,  48.172
   317.4,0.000222,0.000194,0.001771,0.000140,  48.165
   317.6,0.000225,0.000194,0.001809,0.000140,  48.170
   317.8,0.000223,0.000192,0.001826,0.000154,  48.169
   318.0,0.000217,0.000187,0.001830,0.000154,  48.170
   318.2,0.000215,0.000184,0.001818,0.000154,  48.174
   318.4,0.000210,0.000180,0.001789,0.000168,  48.175
   318.6,0.000202,0.000175,0.001748,0.000168,  48.171
   318.8,0.000200,0.000174,0.001732,0.000154,  48.178
   319.0,0.000198,0.000174,0.001736,0.000168,  48.183
   319.2,0.000190,0.000168,0.001744,0.000168,  48.181
   319.4,0.000193,0.000172,0.001745,0.000154,  48.184
   319.6,0.000191,0.000174,0.001745,0.000168,  48.188
   319.8,0.000188,0.000167,0.001753,0.000168,  48.190
   320.0,0.000191,0.000168,0.001745,0.000168,  48.194
   320.2,0.000194,0.000165,0.001721,0.000182,  48.191
   320.4,0.000191,0.000163,0.001701,0.000168,  48.186
   320.6,0.000183,0.000164,0.001685,0.000168,  48.190
   320.8,0.000183,0.000158,0.001661,0.000168,  48.194
   321.0,0.000173,0.000155,0.001645,0.000147,  48.192
   321.2,0.000171,0.000157,0.001637,0.000133,  48.198
   321.4,0.000164,0.000155,0.001634,0.000168,  48.196
   321.6,0.000152,0.000156,0.001642,0.000168,  48.202
   321.8,0.000153,0.000159,0.001650,0.000154,  48.205
   322.0,0.000143,0.000159,0.001668,0.000154,  48.205
   322.2,0.000138,0.000159,0.001693,0.000168,  48.217
   322.4,0.000143,0.000157,0.001730,0.000168,  48.223
   322.6,0.000145,0.000151,0.001743,0.000154,  48.221
   322.8,0.000142,0.000148,0.001760,0.000168,  48.210
   323.0,0.000150,0.000138,0.001764,0.000168,  48.208
   323.2,0.000153,0.000133,0.001748,0.000168,  48.201
   323.4,0.000150,0.000128,0.001719,0.000182,  48.204
   323.6,0.000150,0.000129,0.001673,0.000133,  48.211
   323.8,0.000150,0.000131,0.001657,0.000133,  48.204
   324.0,0.000144,0.000131,0.001665,0.000147,  48.207
   324.2,0.000145,0.000127,0.001676,0.000098,  48.206
   324.4,0.000151,0.000125,0.001648,0.000119,  48.212
   324.6,0.000148,0.000123,0.001603,0.000119,  48.210
   324.8,0.000150,0.000119,0.001542,0.000056,  48.214
   325.0,0.000158,0.000129,0.001518,0.000049,  48.212
   325.2,0.000158,0.000132,0.001501,0.000049,  48.215
   325.4,0.000155,0.000130,0.001490,0.000028,  48.217
   325.6,0.000155,0.000136,0.001462,0.000063,  48.209
   325.8,0.000153,0.000138,0.001429,0.000063,  48.222
   326.0,0.000150,0.000134,0.001396,0.000042,  48.211
   326.2,0.000153,0.000133,0.001355,0.000063,  48.217
   326.4,0.000153,0.000130,0.001307,0.000063,  48.221
   326.6,0.000150,0.000132,0.001258,0.000056,  48.215
   326.8,0.000155,0.000132,0.001217,0.000091,  48.220
   327.0,0.000153,0.000126,0.001184,0.000091,  48.214
   327.2,0.000150,0.000129,0.001155,0.000070,  48.221
   327.4,0.000153,0.000131,0.001155,0.000091,  48.218
   327.6,0.000148,0.000130,0.001172,0.000091,  48.220
   327.8,0.000142,0.000128,0.001210,0.000070,  48.222
   328.0,0.000145,0.000126,0.001239,0.000091,  48.219
   328.2,0.000141,0.000128,0.001273,0.000105,  48.219
   328.4,0.000133,0.000126,0.001318,0.000070,  48.217
   328.6,0.000136,0.000127,0.001318,0.000105,  48.220
   328.8,0.000134,0.000127,0.001285,0.000119,  48.215
   329.0,0.000126,0.000121,0.001235,0.000084,  48.217
   329.2,0.000126,0.000122,0.001223,0.000119,  48.216
   329.4,0.000124,0.000118,0.001219,0.000133,  48.214
   329.6,0.000112,0.000116,0.001216,0.000084,  48.220
   329.8,0.000105,0.000112,0.001229,0.000105,  48.223
   330.0,0.000091,0.000110,0.001258,0.000119,  48.222
   330.2,0.000078,0.000107,0.001300,0.000084,  48.225
   330.4,0.000079,0.000105,0.001280,0.000119,  48.222
   330.6,0.000077,0.000102,0.001243,0.000133,  48.230
   330.8,0.000074,0.000095,0.001186,0.000098,  48.236
   331.0,0.000081,0.000096,0.001161,0.000119,  48.242
   331.2,0.000086,0.000092,0.001137,0.000119,  48.244
   331.4,0.000085,0.000079,0.001125,0.000119,  48.235
   331.6,0.000093,0.000072,0.001116,0.000133,  48.232
   331.8,0.000096,0.000068,0.001092,0.000119,  48.235
   332.0,0.000095,0.000065,0.001067,0.000084,  48.237
   332.2,0.000105,0.000065,0.001038,0.000119,  48.240
   332.4,0.000105,0.000065,0.001034,0.000119,  48.236
   332.6,0.000102,0.000068,0.001049,0.000133,  48.242
   332.8,0.000107,0.000068,0.001070,0.000084,  48.243
   333.0,0.000105,0.000070,0.001037,0.000105,  48.248
   333.2,0.000102,0.000070,0.000984,0.000091,  48.244
   333.4,0.000110,0.000075,0.000907,0.000028,  48.241
   333.6,0.000112,0.000077,0.000887,0.000021,  48.241
   333.8,0.000109,0.000079,0.000891,0.000035,  48.240
   334.0,0.000117,0.000082,0.000912,0.000000,  48.246
   334.2,0.000117,0.000084,0.000921,0.000049,  48.244
   334.4,0.000114,0.000084,0.000938,0.000063,  48.246
   334.6,0.000122,0.000084,0.000963,0.000063,  48.244
   334.8,0.000119,0.000089,0.000971,0.000084,  48.246
   335.0,0.000119,0.000089,0.000959,0.000084,  48.248
   335.2,0.000114,0.000092,0.000947,0.000098,  48.246
   335.4,0.000122,0.000096,0.000918,0.000112,  48.246
   335.6,0.000119,0.000098,0.000873,0.000112,  48.251
   335.8,0.000114,0.000101,0.000816,0.000126,  48.251
   336.0,0.000119,0.000103,0.000828,0.000126,  48.254
   336.2,0.000117,0.000108,0.000878,0.000140,  48.254
   336.4,0.000112,0.000102,0.000956,0.000140,  48.257
   336.6,0.000119,0.000102,0.000960,0.000140,  48.257
   336.8,0.000117,0.000105,0.000944,0.000154,  48.260
   337.0,0.000109,0.000100,0.000903,0.000140,  48.259
   337.2,0.000115,0.000102,0.000887,0.000140,  48.259
   337.4,0.000112,0.000101,0.000866,0.000154,  48.261
   337.6,0.000104,0.000099,0.000845,0.000140,  48.261
   337.8,0.000107,0.000103,0.000846,0.000140,  48.263
   338.0,0.000105,0.000099,0.000854,0.000154,  48.265
   338.2,0.000093,0.000101,0.000879,0.000140,  48.263
   338.4,0.000086,0.000101,0.000858,0.000140,  48.256
   338.6,0.000067,0.000100,0.000813,0.000154,  48.261
   338.8,0.000057,0.000096,0.000763,0.000140,  48.263
   339.0,0.000055,0.000097,0.000690,0.000140,  48.265
   339.2,0.000051,0.000094,0.000596,0.000154,  48.265
   339.4,0.000045,0.000089,0.000481,0.000140,  48.272
   339.6,0.000055,0.000083,0.000502,0.000140,  48.276
   339.8,0.000058,0.000078,0.000585,0.000154,  48.288
   340.0,0.000055,0.000071,0.000724,0.000140,  48.284
   340.2,0.000065,0.000060,0.000749,0.000140,  48.282
   340.4,0.000070,0.000058,0.000745,0.000154,  48.282
   340.6,0.000069,0.000057,0.000719,0.000140,  48.282
   340.8,0.000077,0.000062,0.000740,0.000140,  48.284
   341.0,0.000081,0.000062,0.000773,0.000140,  48.282
   341.2,0.000081,0.000062,0.000817,0.000105,  48.278
   341.4,0.000086,0.000068,0.000871,0.000091,  48.283
   341.6,0.000084,0.000064,0.000851,0.000126,  48.280
   341.8,0.000081,0.000068,0.000807,0.000112,  48.279
   342.0,0.000089,0.000074,0.000746,0.000084,  48.282
   342.2,0.000091,0.000075,0.000713,0.000056,  48.280
   342.4,0.000085,0.000073,0.000681,0.000056,  48.279
   342.6,0.000094,0.000075,0.000656,0.000056,  48.281
   342.8,0.000095,0.000076,0.000640,0.000070,  48.282
   343.0,0.000092,0.000078,0.000640,0.000084,  48.274
   343.2,0.000099,0.000080,0.000636,0.000084,  48.263
   343.4,0.000099,0.000082,0.000628,0.000084,  48.260
   343.6,0.000099,0.000080,0.000628,0.000098,  48.263
   343.8,0.000099,0.000082,0.000616,0.000112,  48.259
   344.0,0.000099,0.000084,0.000604,0.000098,  48.259
   344.2,0.000096,0.000082,0.000592,0.000098,  48.259
   344.4,0.000098,0.000082,0.000575,0.000112,  48.258
   344.6,0.000101,0.000082,0.000588,0.000112,  48.267
   344.8,0.000096,0.000081,0.000609,0.000112,  48.265
   345.0,0.000100,0.000085,0.000642,0.000112,  48.262
   345.2,0.000106,0.000088,0.000671,0.000112,  48.267
   345.4,0.000106,0.000086,0.000709,0.000112,  48.268
   345.6,0.000103,0.000088,0.000745,0.000112,  48.265
   345.8,0.000103,0.000088,0.000753,0.000112,  48.267
   346.0,0.000103,0.000086,0.000741,0.000112,  48.274
   346.2,0.000097,0.000090,0.000716,0.000112,  48.272
   346.4,0.000100,0.000091,0.000695,0.000112,  48.265
   346.6,0.000098,0.000091,0.000663,0.000112,  48.277
   346.8,0.000085,0.000094,0.000621,0.000112,  48.294
   347.0,0.000079,0.000096,0.000618,0.000112,  48.297
   347.2,0.000065,0.000096,0.000630,0.000112,  48.300
   347.4,0.000055,0.000094,0.000655,0.000112,  48.302
   347.6,0.000058,0.000097,0.000667,0.000112,  48.307
   347.8,0.000058,0.000101,0.000679,0.000112,  48.308
   348.0,0.000055,0.000096,0.000688,0.000112,  48.313
   348.2,0.000065,0.000095,0.000696,0.000112,  48.313
   348.4,0.000070,0.000092,0.000696,0.000112,  48.312
   348.6,0.000069,0.000085,0.000696,0.000112,  48.307
   348.8,0.000079,0.000075,0.000708,0.000112,  48.305
   349.0,0.000084,0.000070,0.000728,0.000112,  48.308
   349.2,0.000083,0.000071,0.000748,0.000112,  48.306
   349.4,0.000091,0.000078,0.000764,0.000112,  48.311
   349.6,0.000091,0.000076,0.000780,0.000112,  48.312
   349.8,0.000088,0.000081,0.000796,0.000112,  48.314
   350.0,0.000096,0.000084,0.000780,0.000098,  48.309
   350.2,0.000098,0.000086,0.000751,0.000084,  48.312
   350.4,0.000095,0.000086,0.000710,0.000070,  48.318
   350.6,0.000100,0.000088,0.000690,0.000042,  48.312
   350.8,0.000103,0.000088,0.000678,0.000028,  48.314
   351.0,0.000098,0.000089,0.000674,0.000007,  48.320
   351.2,0.000100,0.000087,0.000662,0.000021,  48.318
   351.4,0.000106,0.000087,0.000650,0.000070,  48.320
   351.6,0.000100,0.000085,0.000638,0.000084,  48.318
   351.8,0.000103,0.000090,0.000625,0.000098,  48.325
   352.0,0.000106,0.000090,0.000638,0.000098,  48.330
   352.2,0.000100,0.000092,0.000666,0.000112,  48.326
   352.4,0.000100,0.000094,0.000704,0.000126,  48.328
   352.6,0.000098,0.000096,0.000696,0.000112,  48.329
   352.8,0.000093,0.000097,0.000683,0.000112,  48.328
   353.0,0.000098,0.000095,0.000643,0.000126,  48.330
   353.2,0.000101,0.000097,0.000602,0.000126,  48.326
   353.4,0.000096,0.000095,0.000556,0.000126,  48.330
   353.6,0.000103,0.000095,0.000502,0.000140,  48.328
   353.8,0.000109,0.000097,0.000482,0.000126,  48.327
   354.0,0.000103,0.000095,0.000473,0.000126,  48.327
   354.2,0.000109,0.000095,0.000481,0.000140,  48.325
   354.4,0.000109,0.000095,0.000506,0.000126,  48.329
   354.6,0.000103,0.000097,0.000544,0.000140,  48.325
   354.8,0.000103,0.000097,0.000598,0.000140,  48.321
   355.0,0.000101,0.000095,0.000626,0.000140,  48.321
   355.2,0.000094,0.000091,0.000639,0.000154,  48.325
   355.4,0.000087,0.000094,0.000643,0.000140,  48.323
   355.6,0.000075,0.000096,0.000631,0.000140,  48.321
   355.8,0.000064,0.000094,0.000602,0.000154,  48.321
   356.0,0.000056,0.000090,0.000552,0.000140,  48.315
   356.2,0.000061,0.000094,0.000515,0.000140,  48.318
   356.4,0.000061,0.000093,0.000482,0.000154,  48.321
   356.6,0.000058,0.000088,0.000445,0.000140,  48.324
   356.8,0.000069,0.000086,0.000437,0.000140,  48.323
   357.0,0.000073,0.000081,0.000458,0.000154,  48.317
   357.2,0.000073,0.000074,0.000491,0.000140,  48.314
   357.4,0.000083,0.000067,0.000496,0.000140,  48.314
   357.6,0.000085,0.000065,0.000511,0.000154,  48.315
   357.8,0.000084,0.000068,0.000515,0.000140,  48.317
   358.0,0.000087,0.000073,0.000465,0.000140,  48.314
   358.2,0.000087,0.000071,0.000383,0.000140,  48.314
   358.4,0.000084,0.000078,0.000272,0.000140,  48.313
   358.6,0.000084,0.000081,0.000226,0.000126,  48.315
   358.8,0.000089,0.000078,0.000206,0.000112,  48.317
   359.0,0.000092,0.000080,0.000193,0.000098,  48.315
   359.2,0.000089,0.000084,0.000194,0.000070,  48.309
   359.4,0.000098,0.000082,0.000219,0.000070,  48.315
   359.6,0.000095,0.000084,0.000252,0.000084,  48.318
   359.8,0.000095,0.000089,0.000265,0.000098,  48.313
