Run Name,Run 1
Run Date,05:01:35 PM   02-09-10
Method Name,28 %
Export Format Version, 1.00
Method ID,  829
Points/Second, 5.00
Number of Records,   3355
Offset from Run Start Time,00:00:00
Run End Time,00:11:11
Time,Second
QuadTec 1, (280.0 nm), AU
QuadTec 2, (260.0 nm), AU
Gradient Pump,%B
QuadTec 3, (214.0 nm), AU
QuadTec 4, (405.0 nm), AU
Conductivity,mS/cm
Trace 6,<Not Available>
GP Pressure,<Not Selected>
Volume,<Not Selected>
Fraction,<Not Available>
Time,QuadTec 1,QuadTec 2,Gradient Pump,QuadTec 3,QuadTec 4,Conductivity
     0.0,0.000109,0.000337, 28,-0.000613,0.000153,  29.394
     0.2,0.000105,0.000336, 28,-0.000535,0.000153,  29.396
     0.4,0.000109,0.000336, 28,-0.000404,0.000166,  29.389
     0.6,0.000110,0.000341, 28,-0.000212,0.000153,  29.384
     0.8,0.000109,0.000341, 28,-0.000150,0.000153,  29.383
     1.0,0.000114,0.000334, 28,-0.000129,0.000153,  29.381
     1.2,0.000446,0.000338, 28,-0.000142,0.000140,  29.380
     1.4,0.000184,0.000340, 28,-0.000112,0.000140,  29.375
     1.6,-0.001033,0.000339, 28,-0.000075,0.000140,  29.373
     1.8,-0.001385,0.000338, 28,-0.000051,0.000140,  29.373
     2.0,0.000000,0.000342, 28,-0.000011,0.000140,  29.370
     2.2,0.000000,0.000341, 28,0.000054,0.000140,  29.367
     2.4,0.000000,0.000000, 28,0.000000,0.000140,  29.363
     2.6,0.000000,0.000000, 28,0.000000,0.000163,  29.363
     2.8,0.000000,0.000000, 28,0.000000,0.000172,  29.363
     3.0,0.000000,0.000000, 28,0.000000,0.000218,  29.361
     3.2,0.000000,0.000000, 28,0.000000,-0.003714,  29.365
     3.4,0.000000,0.000000, 28,0.000000,-0.010416,  29.360
     3.6,0.000000,0.000000, 28,0.000000,0.000000,  29.353
     3.8,0.000000,0.000000, 28,0.000000,0.000000,  29.352
     4.0,0.000000,0.000000, 28,0.000000,0.000000,  29.351
     4.2,0.000000,0.000000, 28,0.000000,0.000000,  29.349
     4.4,0.000000,0.000000, 28,0.000000,0.000000,  29.347
     4.6,0.000000,0.000000, 28,0.000000,0.000000,  29.348
     4.8,0.000000,0.000000, 28,0.000000,0.000000,  29.342
     5.0,0.000000,0.000000, 28,0.000000,0.000000,  29.339
     5.2,0.000000,0.000000, 28,0.000000,0.000000,  29.337
     5.4,0.000042,0.000000, 28,0.000000,0.000000,  29.335
     5.6,0.000032,0.000000, 28,0.000000,0.000000,  29.338
     5.8,0.000035,0.000000, 28,0.000000,0.000000,  29.340
     6.0,0.000040,0.000000, 28,0.000000,0.000000,  29.335
     6.2,0.000041,0.000000, 28,0.000000,0.000000,  29.330
     6.4,0.000049,0.000000, 28,0.000000,0.000000,  29.335
     6.6,0.000060,0.000010, 28,-0.000062,0.000000,  29.335
     6.8,0.000056,0.000012, 28,-0.000105,0.000000,  29.332
     7.0,0.000059,0.000022, 28,-0.000146,0.000000,  29.332
     7.2,0.000062,0.000021, 28,-0.000173,0.000000,  29.329
     7.4,0.000061,0.000027, 28,-0.000194,0.000000,  29.325
     7.6,0.000069,0.000025, 28,-0.000202,0.000000,  29.323
     7.8,0.000085,0.000022, 28,-0.000230,0.000000,  29.318
     8.0,0.000081,0.000028, 28,-0.000257,0.000099,  29.318
     8.2,0.000081,0.000031, 28,-0.000286,0.000076,  29.316
     8.4,0.000085,0.000034, 28,-0.000309,0.000063,  29.315
     8.6,0.000084,0.000035, 28,-0.000336,0.000063,  29.315
     8.8,0.000091,0.000041, 28,-0.000364,0.000063,  29.313
     9.0,0.000107,0.000048, 28,-0.000362,0.000040,  29.316
     9.2,0.000104,0.000048, 28,-0.000350,0.000027,  29.309
     9.4,0.000106,0.000051, 28,-0.000337,0.000040,  29.314
     9.6,0.000110,0.000059, 28,-0.000361,0.000017,  29.313
     9.8,0.000109,0.000060, 28,-0.000385,0.000030,  29.309
    10.0,0.000114,0.000062, 28,-0.000424,0.000043,  29.306
    10.2,0.000125,0.000067, 28,-0.000421,-0.000006,  29.307
    10.4,0.000130,0.000070, 28,-0.000410,0.000030,  29.304
    10.6,0.000138,0.000081, 28,-0.000373,0.000043,  29.305
    10.8,0.000132,0.000095, 28,-0.000499,-0.000006,  29.303
    11.0,0.000138,0.000096, 28,-0.000699,0.000030,  29.306
    11.2,0.000135,0.000095, 28,-0.000964,0.000043,  29.300
    11.4,0.000143,0.000095, 28,-0.001007,0.000007,  29.298
    11.6,0.000141,0.000101, 28,-0.000961,0.000043,  29.307
    11.8,0.000137,0.000098, 28,-0.000831,0.000057,  29.300
    12.0,0.000146,0.000103, 28,-0.000785,0.000020,  29.300
    12.2,0.000151,0.000106, 28,-0.000746,0.000043,  29.296
    12.4,0.000151,0.000104, 28,-0.000708,0.000070,  29.298
    12.6,0.000154,0.000111, 28,-0.000674,0.000034,  29.302
    12.8,0.000164,0.000115, 28,-0.000636,0.000070,  29.301
    13.0,0.000169,0.000117, 28,-0.000606,0.000083,  29.301
    13.2,0.000168,0.000124, 28,-0.000604,0.000083,  29.297
    13.4,0.000173,0.000130, 28,-0.000607,0.000106,  29.293
    13.6,0.000175,0.000135, 28,-0.000633,0.000106,  29.299
    13.8,0.000172,0.000137, 28,-0.000609,0.000070,  29.301
    14.0,0.000167,0.000137, 28,-0.000565,0.000070,  29.296
    14.2,0.000163,0.000140, 28,-0.000518,0.000070,  29.298
    14.4,0.000168,0.000138, 28,-0.000495,0.000034,  29.296
    14.6,0.000171,0.000136, 28,-0.000484,0.000070,  29.300
    14.8,0.000170,0.000136, 28,-0.000483,0.000070,  29.299
    15.0,0.000175,0.000139, 28,-0.000490,0.000034,  29.298
    15.2,0.000177,0.000141, 28,-0.000505,0.000070,  29.297
    15.4,0.000176,0.000140, 28,-0.000541,0.000070,  29.298
    15.6,0.000181,0.000140, 28,-0.000580,0.000047,  29.293
    15.8,0.000190,0.000143, 28,-0.000642,0.000070,  29.298
    16.0,0.000186,0.000143, 28,-0.000720,0.000070,  29.294
    16.2,0.000195,0.000149, 28,-0.000821,0.000047,  29.294
    16.4,0.000203,0.000154, 28,-0.000823,0.000070,  29.294
    16.6,0.000203,0.000156, 28,-0.000797,0.000070,  29.294
    16.8,0.000207,0.000159, 28,-0.000736,0.000070,  29.292
    17.0,0.000208,0.000163, 28,-0.000719,0.000034,  29.295
    17.2,0.000205,0.000171, 28,-0.000691,0.000070,  29.297
    17.4,0.000199,0.000174, 28,-0.000684,0.000070,  29.294
    17.6,0.000202,0.000171, 28,-0.000689,0.000034,  29.296
    17.8,0.000202,0.000173, 28,-0.000696,0.000070,  29.294
    18.0,0.000196,0.000173, 28,-0.000712,0.000070,  29.296
    18.2,0.000202,0.000169, 28,-0.000736,0.000070,  29.295
    18.4,0.000202,0.000168, 28,-0.000768,0.000106,  29.297
    18.6,0.000196,0.000164, 28,-0.000809,0.000106,  29.301
    18.8,0.000202,0.000170, 28,-0.000788,0.000106,  29.301
    19.0,0.000202,0.000167, 28,-0.000749,0.000106,  29.303
    19.2,0.000196,0.000169, 28,-0.000694,0.000093,  29.302
    19.4,0.000202,0.000175, 28,-0.000701,0.000093,  29.301
    19.6,0.000202,0.000172, 28,-0.000734,0.000093,  29.302
    19.8,0.000198,0.000176, 28,-0.000788,0.000080,  29.304
    20.0,0.000207,0.000176, 28,-0.000788,0.000080,  29.303
    20.2,0.000209,0.000176, 28,-0.000788,0.000093,  29.307
    20.4,0.000209,0.000178, 28,-0.000768,0.000093,  29.305
    20.6,0.000207,0.000183, 28,-0.000730,0.000093,  29.304
    20.8,0.000202,0.000183, 28,-0.000677,0.000093,  29.305
    21.0,0.000202,0.000186, 28,-0.000623,0.000093,  29.313
    21.2,0.000196,0.000189, 28,-0.000623,0.000093,  29.308
    21.4,0.000204,0.000188, 28,-0.000638,0.000093,  29.309
    21.6,0.000207,0.000188, 28,-0.000677,0.000093,  29.311
    21.8,0.000201,0.000188, 28,-0.000646,0.000093,  29.313
    22.0,0.000204,0.000182, 28,-0.000593,0.000093,  29.306
    22.2,0.000204,0.000178, 28,-0.000510,0.000093,  29.311
    22.4,0.000201,0.000177, 28,-0.000523,0.000093,  29.311
    22.6,0.000207,0.000172, 28,-0.000566,0.000093,  29.313
    22.8,0.000203,0.000174, 28,-0.000658,0.000106,  29.310
    23.0,0.000208,0.000180, 28,-0.000648,0.000106,  29.315
    23.2,0.000213,0.000178, 28,-0.000588,0.000106,  29.315
    23.4,0.000212,0.000178, 28,-0.000511,0.000119,  29.315
    23.6,0.000215,0.000178, 28,-0.000578,0.000119,  29.317
    23.8,0.000220,0.000175, 28,-0.000693,0.000106,  29.313
    24.0,0.000220,0.000175, 28,-0.000886,0.000106,  29.315
    24.2,0.000223,0.000183, 28,-0.001119,0.000106,  29.320
    24.4,0.000228,0.000182, 28,-0.001119,0.000106,  29.315
    24.6,0.000228,0.000183, 28,-0.001068,0.000106,  29.319
    24.8,0.000223,0.000187, 28,-0.000950,0.000083,  29.320
    25.0,0.000220,0.000194, 28,-0.000891,0.000106,  29.324
    25.2,0.000223,0.000196, 28,-0.000831,0.000106,  29.318
    25.4,0.000219,0.000198, 28,-0.000790,0.000083,  29.321
    25.6,0.000222,0.000200, 28,-0.000751,0.000083,  29.327
    25.8,0.000225,0.000200, 28,-0.000715,0.000119,  29.326
    26.0,0.000224,0.000199, 28,-0.000693,0.000119,  29.328
    26.2,0.000223,0.000197, 28,-0.000662,0.000133,  29.331
    26.4,0.000228,0.000193, 28,-0.000640,0.000119,  29.330
    26.6,0.000227,0.000197, 28,-0.000624,0.000119,  29.332
    26.8,0.000229,0.000193, 28,-0.000631,0.000133,  29.330
    27.0,0.000228,0.000186, 28,-0.000655,0.000119,  29.332
    27.2,0.000219,0.000188, 28,-0.000699,0.000119,  29.336
    27.4,0.000220,0.000192, 28,-0.000688,0.000133,  29.333
    27.6,0.000223,0.000194, 28,-0.000643,0.000119,  29.330
    27.8,0.000214,0.000194, 28,-0.000575,0.000119,  29.330
    28.0,0.000214,0.000193, 28,-0.000549,0.000133,  29.333
    28.2,0.000212,0.000193, 28,-0.000520,0.000119,  29.330
    28.4,0.000207,0.000194, 28,-0.000498,0.000119,  29.331
    28.6,0.000214,0.000188, 28,-0.000527,0.000133,  29.334
    28.8,0.000211,0.000184, 28,-0.000580,0.000133,  29.340
    29.0,0.000208,0.000186, 28,-0.000650,0.000133,  29.338
    29.2,0.000216,0.000188, 28,-0.000667,0.000133,  29.339
    29.4,0.000218,0.000189, 28,-0.000694,0.000133,  29.339
    29.6,0.000223,0.000189, 28,-0.000706,0.000133,  29.343
    29.8,0.000223,0.000186, 28,-0.000776,0.000133,  29.345
    30.0,0.000223,0.000186, 28,-0.000896,0.000133,  29.341
    30.2,0.000225,0.000191, 28,-0.001051,0.000133,  29.342
    30.4,0.000219,0.000190, 28,-0.001075,0.000133,  29.344
    30.6,0.000217,0.000189, 28,-0.001068,0.000133,  29.343
    30.8,0.000223,0.000193, 28,-0.001019,0.000133,  29.350
    31.0,0.000224,0.000193, 28,-0.001026,0.000133,  29.345
    31.2,0.000234,0.000194, 28,-0.001041,0.000133,  29.348
    31.4,0.000231,0.000196, 28,-0.001060,0.000133,  29.348
    31.6,0.000232,0.000193, 28,-0.001051,0.000119,  29.347
    31.8,0.000234,0.000190, 28,-0.001034,0.000106,  29.348
    32.0,0.000230,0.000196, 28,-0.000997,0.000106,  29.348
    32.2,0.000218,0.000199, 28,-0.001079,0.000106,  29.351
    32.4,0.000224,0.000199, 28,-0.001212,0.000106,  29.344
    32.6,0.000229,0.000201, 28,-0.001398,0.000106,  29.347
    32.8,0.000228,0.000205, 28,-0.001372,0.000106,  29.348
    33.0,0.000242,0.000207, 28,-0.001254,0.000106,  29.351
    33.2,0.000244,0.000207, 28,-0.001062,0.000106,  29.348
    33.4,0.000233,0.000203, 28,-0.000993,0.000119,  29.347
    33.6,0.000232,0.000206, 28,-0.000934,0.000119,  29.351
    33.8,0.000234,0.000209, 28,-0.000891,0.000119,  29.346
    34.0,0.000231,0.000214, 28,-0.000869,0.000096,  29.348
    34.2,0.000242,0.000214, 28,-0.000922,0.000133,  29.349
    34.4,0.000244,0.000214, 28,-0.001034,0.000119,  29.348
    34.6,0.000236,0.000210, 28,-0.001186,0.000096,  29.353
    34.8,0.000242,0.000213, 28,-0.001162,0.000096,  29.348
    35.0,0.000242,0.000215, 28,-0.001072,0.000119,  29.352
    35.2,0.000233,0.000219, 28,-0.000915,0.000119,  29.349
    35.4,0.000234,0.000216, 28,-0.000869,0.000133,  29.351
    35.6,0.000228,0.000216, 28,-0.000845,0.000119,  29.352
    35.8,0.000231,0.000213, 28,-0.000846,0.000119,  29.346
    36.0,0.000228,0.000213, 28,-0.000806,0.000133,  29.354
    36.2,0.000222,0.000213, 28,-0.000751,0.000119,  29.350
    36.4,0.000228,0.000211, 28,-0.000683,0.000119,  29.353
    36.6,0.000223,0.000210, 28,-0.000643,0.000133,  29.347
    36.8,0.000217,0.000205, 28,-0.000618,0.000119,  29.352
    37.0,0.000223,0.000205, 28,-0.000590,0.000119,  29.348
    37.2,0.000221,0.000207, 28,-0.000613,0.000133,  29.350
    37.4,0.000215,0.000205, 28,-0.000659,0.000119,  29.353
    37.6,0.000220,0.000205, 28,-0.000729,0.000119,  29.350
    37.8,0.000222,0.000203, 28,-0.000741,0.000133,  29.351
    38.0,0.000225,0.000199, 28,-0.000719,0.000133,  29.347
    38.2,0.000219,0.000199, 28,-0.000681,0.000133,  29.349
    38.4,0.000225,0.000203, 28,-0.000710,0.000133,  29.346
    38.6,0.000222,0.000203, 28,-0.000749,0.000133,  29.350
    38.8,0.000225,0.000203, 28,-0.000819,0.000133,  29.350
    39.0,0.000225,0.000203, 28,-0.000804,0.000133,  29.352
    39.2,0.000225,0.000205, 28,-0.000756,0.000133,  29.354
    39.4,0.000221,0.000208, 28,-0.000686,0.000133,  29.350
    39.6,0.000224,0.000210, 28,-0.000819,0.000133,  29.352
    39.8,0.000232,0.000212, 28,-0.001031,0.000133,  29.350
    40.0,0.000229,0.000212, 28,-0.001340,0.000133,  29.351
    40.2,0.000229,0.000211, 28,-0.001347,0.000133,  29.355
    40.4,0.000229,0.000207, 28,-0.001250,0.000119,  29.350
    40.6,0.000220,0.000212, 28,-0.001041,0.000119,  29.351
    40.8,0.000224,0.000218, 28,-0.001011,0.000133,  29.348
    41.0,0.000222,0.000215, 28,-0.001011,0.000119,  29.350
    41.2,0.000216,0.000211, 28,-0.001043,0.000119,  29.351
    41.4,0.000225,0.000215, 28,-0.000976,0.000133,  29.347
    41.6,0.000228,0.000218, 28,-0.000891,0.000119,  29.351
    41.8,0.000226,0.000212, 28,-0.000784,0.000119,  29.346
    42.0,0.000223,0.000211, 28,-0.000731,0.000119,  29.352
    42.2,0.000222,0.000211, 28,-0.000698,0.000106,  29.348
    42.4,0.000224,0.000213, 28,-0.000676,0.000106,  29.346
    42.6,0.000221,0.000219, 28,-0.000678,0.000106,  29.350
    42.8,0.000232,0.000212, 28,-0.000655,0.000106,  29.347
    43.0,0.000237,0.000212, 28,-0.000649,0.000106,  29.345
    43.2,0.000233,0.000214, 28,-0.000649,0.000083,  29.350
    43.4,0.000239,0.000213, 28,-0.000662,0.000083,  29.349
    43.6,0.000242,0.000217, 28,-0.000672,0.000083,  29.349
    43.8,0.000236,0.000225, 28,-0.000705,0.000060,  29.350
    44.0,0.000242,0.000228, 28,-0.000727,0.000096,  29.344
    44.2,0.000244,0.000224, 28,-0.000749,0.000119,  29.346
    44.4,0.000233,0.000219, 28,-0.000773,0.000119,  29.349
    44.6,0.000237,0.000219, 28,-0.000749,0.000133,  29.348
    44.8,0.000237,0.000211, 28,-0.000703,0.000119,  29.351
    45.0,0.000231,0.000218, 28,-0.000642,0.000119,  29.345
    45.2,0.000234,0.000216, 28,-0.000647,0.000133,  29.347
    45.4,0.000237,0.000210, 28,-0.000669,0.000119,  29.345
    45.6,0.000242,0.000211, 28,-0.000703,0.000119,  29.345
    45.8,0.000253,0.000213, 28,-0.000756,0.000133,  29.343
    46.0,0.000255,0.000215, 28,-0.000818,0.000119,  29.347
    46.2,0.000252,0.000215, 28,-0.000889,0.000119,  29.350
    46.4,0.000252,0.000213, 28,-0.001092,0.000133,  29.349
    46.6,0.000252,0.000208, 28,-0.001377,0.000119,  29.347
    46.8,0.000246,0.000211, 28,-0.001749,0.000119,  29.350
    47.0,0.000247,0.000215, 28,-0.001754,0.000133,  29.352
    47.2,0.000244,0.000212, 28,-0.001612,0.000119,  29.353
    47.4,0.000238,0.000212, 28,-0.001343,0.000119,  29.350
    47.6,0.000242,0.000219, 28,-0.001251,0.000119,  29.350
    47.8,0.000242,0.000217, 28,-0.001171,0.000106,  29.351
    48.0,0.000244,0.000215, 28,-0.001120,0.000106,  29.351
    48.2,0.000239,0.000218, 28,-0.001060,0.000119,  29.353
    48.4,0.000237,0.000217, 28,-0.001007,0.000119,  29.352
    48.6,0.000239,0.000217, 28,-0.000969,0.000119,  29.355
    48.8,0.000239,0.000217, 28,-0.000908,0.000133,  29.351
    49.0,0.000245,0.000221, 28,-0.000840,0.000133,  29.355
    49.2,0.000245,0.000218, 28,-0.000765,0.000133,  29.357
    49.4,0.000243,0.000217, 28,-0.000717,0.000119,  29.359
    49.6,0.000238,0.000217, 28,-0.000666,0.000142,  29.355
    49.8,0.000238,0.000216, 28,-0.000635,0.000142,  29.355
    50.0,0.000235,0.000216, 28,-0.000611,0.000119,  29.353
    50.2,0.000233,0.000214, 28,-0.000596,0.000156,  29.354
    50.4,0.000233,0.000214, 28,-0.000602,0.000156,  29.353
    50.6,0.000233,0.000215, 28,-0.000626,0.000133,  29.354
    50.8,0.000233,0.000213, 28,-0.000659,0.000156,  29.354
    51.0,0.000230,0.000214, 28,-0.000727,0.000156,  29.354
    51.2,0.000230,0.000216, 28,-0.000722,0.000156,  29.355
    51.4,0.000228,0.000217, 28,-0.000705,0.000178,  29.354
    51.6,0.000228,0.000216, 28,-0.000674,0.000178,  29.354
    51.8,0.000225,0.000220, 28,-0.000619,0.000178,  29.353
    52.0,0.000225,0.000218, 28,-0.000681,0.000156,  29.353
    52.2,0.000228,0.000219, 28,-0.000782,0.000156,  29.353
    52.4,0.000228,0.000222, 28,-0.000920,0.000169,  29.352
    52.6,0.000228,0.000222, 28,-0.001004,0.000169,  29.352
    52.8,0.000231,0.000220, 28,-0.001075,0.000156,  29.370
    53.0,0.000236,0.000223, 28,-0.001147,0.000156,  29.374
    53.2,0.000237,0.000223, 28,-0.001138,0.000133,  29.387
    53.4,0.000240,0.000221, 28,-0.001085,0.000156,  29.394
    53.6,0.000243,0.000218, 28,-0.000986,0.000156,  29.403
    53.8,0.000238,0.000216, 28,-0.000968,0.000133,  29.408
    54.0,0.000237,0.000216, 28,-0.000947,0.000156,  29.410
    54.2,0.000237,0.000214, 28,-0.000947,0.000156,  29.419
    54.4,0.000237,0.000216, 28,-0.000916,0.000133,  29.425
    54.6,0.000234,0.000215, 28,-0.000884,0.000156,  29.428
    54.8,0.000234,0.000218, 28,-0.000852,0.000156,  29.434
    55.0,0.000240,0.000221, 28,-0.000853,0.000133,  29.442
    55.2,0.000237,0.000217, 28,-0.000891,0.000156,  29.446
    55.4,0.000232,0.000219, 28,-0.000951,0.000156,  29.451
    55.6,0.000225,0.000214, 28,-0.000957,0.000133,  29.446
    55.8,0.000215,0.000208, 28,-0.000951,0.000156,  29.410
    56.0,0.000215,0.000216, 28,-0.000930,0.000156,  29.393
    56.2,0.000209,0.000223, 28,-0.000899,0.000133,  29.372
    56.4,0.000214,0.000223, 28,-0.000855,0.000156,  29.367
    56.6,0.000226,0.000222, 28,-0.000809,0.000156,  29.354
    56.8,0.000235,0.000222, 28,-0.000750,0.000119,  29.350
    57.0,0.000261,0.000225, 28,-0.000690,0.000142,  29.351
    57.2,0.000281,0.000229, 28,-0.000633,0.000142,  29.351
    57.4,0.000298,0.000235, 28,-0.000447,0.000119,  29.352
    57.6,0.000326,0.000245, 28,-0.000200,0.000156,  29.350
    57.8,0.000349,0.000261, 28,0.000102,0.000129,  29.347
    58.0,0.000368,0.000284, 28,0.000287,0.000066,  29.344
    58.2,0.000401,0.000304, 28,0.000454,0.000049,  29.340
    58.4,0.000386,0.000327, 28,0.000583,0.000036,  29.341
    58.6,0.000343,0.000349, 28,0.000808,0.000000,  29.344
    58.8,0.000286,0.000368, 28,0.001073,0.000049,  29.343
    59.0,0.000226,0.000390, 28,0.001362,0.000063,  29.342
    59.2,0.000153,0.000409, 28,0.001551,0.000040,  29.342
    59.4,0.000078,0.000438, 28,0.001703,0.000089,  29.337
    59.6,0.000051,0.000479, 28,0.001814,0.000116,  29.338
    59.8,0.000038,0.000520, 28,0.001807,0.000106,  29.339
    60.0,0.000059,0.000454, 28,0.001720,0.000156,  29.338
    60.2,0.000061,0.000336, 28,0.001562,0.000182,  29.340
    60.4,0.000063,0.000171, 28,0.001317,0.000209,  29.337
    60.6,0.000078,0.000114, 28,0.001071,0.000235,  29.334
    60.8,0.000089,0.000084, 28,0.000792,0.000248,  29.331
    61.0,0.000093,0.000085, 28,0.000466,0.000209,  29.336
    61.2,0.000108,0.000075, 28,0.000239,0.000142,  29.332
    61.4,0.000125,0.000070, 28,0.000045,0.000049,  29.336
    61.6,0.000140,0.000077, 28,-0.000116,0.000023,  29.332
    61.8,0.000164,0.000076, 28,-0.000508,-0.000026,  29.333
    62.0,0.000181,0.000083, 28,-0.000999,0.000010,  29.333
    62.2,0.000190,0.000083, 28,-0.001582,0.000010,  29.338
    62.4,0.000211,0.000097, 28,-0.001656,-0.000026,  29.334
    62.6,0.000226,0.000108, 28,-0.001521,0.000023,  29.333
    62.8,0.000228,0.000115, 28,-0.001174,0.000036,  29.332
    63.0,0.000239,0.000133, 28,-0.001095,0.000027,  29.331
    63.2,0.000246,0.000144, 28,-0.001048,0.000063,  29.333
    63.4,0.000243,0.000153, 28,-0.001034,0.000076,  29.329
    63.6,0.000249,0.000168, 28,-0.000979,0.000053,  29.334
    63.8,0.000254,0.000177, 28,-0.000920,0.000089,  29.328
    64.0,0.000250,0.000186, 28,-0.000865,0.000102,  29.327
    64.2,0.000261,0.000202, 28,-0.000804,0.000102,  29.327
    64.4,0.000264,0.000211, 28,-0.000735,0.000125,  29.321
    64.6,0.000264,0.000212, 28,-0.000667,0.000139,  29.326
    64.8,0.000266,0.000221, 28,-0.000626,0.000116,  29.326
    65.0,0.000264,0.000230, 28,-0.000588,0.000129,  29.320
    65.2,0.000264,0.000230, 28,-0.000558,0.000142,  29.317
    65.4,0.000266,0.000236, 28,-0.000594,0.000106,  29.315
    65.6,0.000263,0.000237, 28,-0.000665,0.000142,  29.315
    65.8,0.000260,0.000237, 28,-0.000768,0.000156,  29.315
    66.0,0.000255,0.000242, 28,-0.000775,0.000133,  29.312
    66.2,0.000248,0.000242, 28,-0.000744,0.000169,  29.311
    66.4,0.000248,0.000240, 28,-0.000682,0.000169,  29.312
    66.6,0.000245,0.000242, 28,-0.000682,0.000133,  29.310
    66.8,0.000254,0.000242, 28,-0.000691,0.000169,  29.311
    67.0,0.000256,0.000236, 28,-0.000708,0.000169,  29.308
    67.2,0.000248,0.000232, 28,-0.000676,0.000133,  29.310
    67.4,0.000254,0.000228, 28,-0.000635,0.000169,  29.312
    67.6,0.000256,0.000230, 28,-0.000566,0.000169,  29.311
    67.8,0.000248,0.000228, 28,-0.000559,0.000156,  29.307
    68.0,0.000254,0.000225, 28,-0.000582,0.000178,  29.307
    68.2,0.000256,0.000227, 28,-0.000635,0.000178,  29.310
    68.4,0.000248,0.000229, 28,-0.000710,0.000156,  29.307
    68.6,0.000251,0.000227, 28,-0.000754,0.000156,  29.304
    68.8,0.000251,0.000224, 28,-0.000790,0.000119,  29.304
    69.0,0.000245,0.000223, 28,-0.000845,0.000169,  29.307
    69.2,0.000246,0.000219, 28,-0.000834,0.000133,  29.308
    69.4,0.000249,0.000221, 28,-0.000783,0.000156,  29.309
    69.6,0.000245,0.000222, 28,-0.000720,0.000169,  29.302
    69.8,0.000251,0.000222, 28,-0.000701,0.000169,  29.302
    70.0,0.000254,0.000230, 28,-0.000672,0.000156,  29.305
    70.2,0.000248,0.000233, 28,-0.000671,0.000156,  29.304
    70.4,0.000251,0.000235, 28,-0.000677,0.000133,  29.301
    70.6,0.000254,0.000231, 28,-0.000686,0.000169,  29.303
    70.8,0.000245,0.000237, 28,-0.000717,0.000169,  29.301
    71.0,0.000249,0.000233, 28,-0.000739,0.000133,  29.304
    71.2,0.000251,0.000233, 28,-0.000761,0.000169,  29.302
    71.4,0.000248,0.000231, 28,-0.000797,0.000169,  29.301
    71.6,0.000256,0.000234, 28,-0.000811,0.000133,  29.301
    71.8,0.000259,0.000232, 28,-0.000826,0.000156,  29.302
    72.0,0.000264,0.000229, 28,-0.000829,0.000156,  29.297
    72.2,0.000272,0.000225, 28,-0.000831,0.000133,  29.303
    72.4,0.000275,0.000225, 28,-0.000838,0.000156,  29.299
    72.6,0.000283,0.000225, 28,-0.000845,0.000156,  29.300
    72.8,0.000281,0.000226, 28,-0.000846,0.000133,  29.300
    73.0,0.000278,0.000225, 28,-0.000853,0.000156,  29.298
    73.2,0.000278,0.000227, 28,-0.000865,0.000156,  29.300
    73.4,0.000278,0.000235, 28,-0.000857,0.000133,  29.296
    73.6,0.000270,0.000241, 28,-0.000841,0.000156,  29.300
    73.8,0.000264,0.000240, 28,-0.000821,0.000156,  29.295
    74.0,0.000266,0.000242, 28,-0.000804,0.000133,  29.292
    74.2,0.000270,0.000245, 28,-0.000782,0.000156,  29.296
    74.4,0.000270,0.000245, 28,-0.000747,0.000156,  29.299
    74.6,0.000270,0.000246, 28,-0.000717,0.000133,  29.302
    74.8,0.000267,0.000248, 28,-0.000688,0.000156,  29.296
    75.0,0.000265,0.000243, 28,-0.000657,0.000156,  29.294
    75.2,0.000262,0.000248, 28,-0.000658,0.000133,  29.298
    75.4,0.000260,0.000251, 28,-0.000682,0.000169,  29.296
    75.6,0.000260,0.000247, 28,-0.000723,0.000169,  29.296
    75.8,0.000257,0.000250, 28,-0.000722,0.000133,  29.298
    76.0,0.000260,0.000250, 28,-0.000694,0.000169,  29.298
    76.2,0.000263,0.000244, 28,-0.000660,0.000169,  29.300
    76.4,0.000262,0.000243, 28,-0.000607,0.000133,  29.298
    76.6,0.000266,0.000240, 28,-0.000621,0.000133,  29.294
    76.8,0.000268,0.000238, 28,-0.000658,0.000133,  29.297
    77.0,0.000268,0.000239, 28,-0.000706,0.000096,  29.299
    77.2,0.000269,0.000237, 28,-0.000728,0.000133,  29.297
    77.4,0.000268,0.000241, 28,-0.000732,0.000133,  29.297
    77.6,0.000268,0.000242, 28,-0.000747,0.000133,  29.296
    77.8,0.000272,0.000237, 28,-0.000778,0.000133,  29.295
    78.0,0.000268,0.000244, 28,-0.000815,0.000169,  29.295
    78.2,0.000266,0.000246, 28,-0.000862,0.000169,  29.300
    78.4,0.000263,0.000246, 28,-0.000868,0.000133,  29.301
    78.6,0.000260,0.000248, 28,-0.000867,0.000169,  29.293
    78.8,0.000260,0.000246, 28,-0.000843,0.000169,  29.290
    79.0,0.000260,0.000246, 28,-0.000812,0.000133,  29.290
    79.2,0.000256,0.000244, 28,-0.000780,0.000133,  29.292
    79.4,0.000254,0.000246, 28,-0.000735,0.000133,  29.294
    79.6,0.000260,0.000246, 28,-0.000727,0.000133,  29.296
    79.8,0.000262,0.000244, 28,-0.000734,0.000133,  29.301
    80.0,0.000260,0.000245, 28,-0.000752,0.000133,  29.301
    80.2,0.000260,0.000247, 28,-0.000759,0.000133,  29.299
    80.4,0.000260,0.000245, 28,-0.000766,0.000133,  29.306
    80.6,0.000262,0.000244, 28,-0.000775,0.000133,  29.305
    80.8,0.000262,0.000250, 28,-0.000752,0.000133,  29.305
    81.0,0.000262,0.000247, 28,-0.000708,0.000133,  29.308
    81.2,0.000262,0.000245, 28,-0.000655,0.000133,  29.306
    81.4,0.000260,0.000244, 28,-0.000633,0.000133,  29.306
    81.6,0.000252,0.000242, 28,-0.000628,0.000133,  29.309
    81.8,0.000255,0.000244, 28,-0.000648,0.000133,  29.308
    82.0,0.000257,0.000240, 28,-0.000640,0.000133,  29.311
    82.2,0.000257,0.000236, 28,-0.000633,0.000133,  29.311
    82.4,0.000260,0.000238, 28,-0.000619,0.000133,  29.311
    82.6,0.000260,0.000238, 28,-0.000616,0.000133,  29.315
    82.8,0.000257,0.000236, 28,-0.000609,0.000133,  29.319
    83.0,0.000257,0.000234, 28,-0.000602,0.000133,  29.317
    83.2,0.000257,0.000239, 28,-0.000609,0.000133,  29.315
    83.4,0.000252,0.000235, 28,-0.000623,0.000169,  29.319
    83.6,0.000255,0.000233, 28,-0.000638,0.000169,  29.319
    83.8,0.000260,0.000235, 28,-0.000617,0.000133,  29.322
    84.0,0.000265,0.000235, 28,-0.000593,0.000169,  29.323
    84.2,0.000265,0.000237, 28,-0.000563,0.000169,  29.320
    84.4,0.000265,0.000238, 28,-0.000624,0.000169,  29.324
    84.6,0.000265,0.000236, 28,-0.000737,0.000192,  29.319
    84.8,0.000265,0.000234, 28,-0.000889,0.000192,  29.323
    85.0,0.000265,0.000233, 28,-0.001094,0.000169,  29.326
    85.2,0.000262,0.000235, 28,-0.001077,0.000156,  29.328
    85.4,0.000265,0.000228, 28,-0.001002,0.000119,  29.325
    85.6,0.000256,0.000232, 28,-0.000865,0.000156,  29.327
    85.8,0.000254,0.000234, 28,-0.000817,0.000133,  29.326
    86.0,0.000256,0.000232, 28,-0.000773,0.000156,  29.325
    86.2,0.000248,0.000237, 28,-0.000739,0.000169,  29.326
    86.4,0.000251,0.000235, 28,-0.001044,0.000169,  29.325
    86.6,0.000251,0.000232, 28,-0.001515,0.000156,  29.333
    86.8,0.000249,0.000236, 28,-0.002158,0.000156,  29.329
    87.0,0.000250,0.000236, 28,-0.002152,0.000133,  29.331
    87.2,0.000252,0.000234, 28,-0.001919,0.000156,  29.332
    87.4,0.000246,0.000233, 28,-0.001449,0.000156,  29.332
    87.6,0.000249,0.000228, 28,-0.001285,0.000133,  29.330
    87.8,0.000249,0.000223, 28,-0.001176,0.000156,  29.333
    88.0,0.000240,0.000225, 28,-0.001094,0.000156,  29.331
    88.2,0.000244,0.000224, 28,-0.001065,0.000133,  29.337
    88.4,0.000244,0.000222, 28,-0.001075,0.000156,  29.339
    88.6,0.000238,0.000225, 28,-0.001126,0.000156,  29.335
    88.8,0.000241,0.000226, 28,-0.001065,0.000133,  29.335
    89.0,0.000241,0.000226, 28,-0.000966,0.000156,  29.341
    89.2,0.000238,0.000222, 28,-0.000834,0.000156,  29.337
    89.4,0.000235,0.000223, 28,-0.000891,0.000119,  29.337
    89.6,0.000238,0.000225, 28,-0.001014,0.000142,  29.339
    89.8,0.000232,0.000221, 28,-0.001217,0.000142,  29.340
    90.0,0.000240,0.000223, 28,-0.001201,0.000119,  29.344
    90.2,0.000238,0.000220, 28,-0.001133,0.000156,  29.347
    90.4,0.000238,0.000214, 28,-0.000991,0.000156,  29.345
    90.6,0.000240,0.000214, 28,-0.000937,0.000133,  29.348
    90.8,0.000240,0.000212, 28,-0.000892,0.000169,  29.348
    91.0,0.000240,0.000210, 28,-0.000857,0.000169,  29.348
    91.2,0.000243,0.000214, 28,-0.000802,0.000133,  29.347
    91.4,0.000240,0.000216, 28,-0.000742,0.000156,  29.347
    91.6,0.000243,0.000214, 28,-0.000676,0.000156,  29.347
    91.8,0.000237,0.000223, 28,-0.000645,0.000133,  29.347
    92.0,0.000237,0.000223, 28,-0.000610,0.000156,  29.350
    92.2,0.000239,0.000221, 28,-0.000604,0.000156,  29.348
    92.4,0.000231,0.000226, 28,-0.000651,0.000133,  29.351
    92.6,0.000237,0.000229, 28,-0.000737,0.000156,  29.346
    92.8,0.000239,0.000228, 28,-0.000860,0.000156,  29.347
    93.0,0.000231,0.000234, 28,-0.000836,0.000133,  29.346
    93.2,0.000237,0.000231, 28,-0.000761,0.000156,  29.340
    93.4,0.000237,0.000231, 28,-0.000631,0.000156,  29.335
    93.6,0.000231,0.000226, 28,-0.000609,0.000133,  29.337
    93.8,0.000234,0.000222, 28,-0.000615,0.000156,  29.335
    94.0,0.000237,0.000225, 28,-0.000653,0.000156,  29.333
    94.2,0.000231,0.000221, 28,-0.000721,0.000156,  29.338
    94.4,0.000237,0.000217, 28,-0.000826,0.000169,  29.330
    94.6,0.000239,0.000221, 28,-0.000961,0.000156,  29.336
    94.8,0.000237,0.000219, 28,-0.001126,0.000169,  29.330
    95.0,0.000243,0.000217, 28,-0.001290,0.000169,  29.333
    95.2,0.000245,0.000222, 28,-0.001476,0.000156,  29.334
    95.4,0.000245,0.000227, 28,-0.001673,0.000156,  29.335
    95.6,0.000245,0.000228, 28,-0.001912,0.000133,  29.334
    95.8,0.000249,0.000227, 28,-0.002179,0.000156,  29.325
    96.0,0.000253,0.000228, 28,-0.002471,0.000156,  29.329
    96.2,0.000253,0.000226, 28,-0.002372,0.000133,  29.330
    96.4,0.000255,0.000226, 28,-0.002090,0.000156,  29.324
    96.6,0.000260,0.000223, 28,-0.001622,0.000156,  29.322
    96.8,0.000253,0.000222, 28,-0.001441,0.000133,  29.322
    97.0,0.000252,0.000221, 28,-0.001295,0.000156,  29.322
    97.2,0.000260,0.000222, 28,-0.001208,0.000156,  29.322
    97.4,0.000265,0.000225, 28,-0.001078,0.000133,  29.323
    97.6,0.000264,0.000225, 28,-0.000950,0.000156,  29.319
    97.8,0.000260,0.000227, 28,-0.000822,0.000156,  29.317
    98.0,0.000271,0.000229, 28,-0.000972,0.000133,  29.316
    98.2,0.000279,0.000228, 28,-0.001278,0.000156,  29.317
    98.4,0.000278,0.000236, 28,-0.001709,0.000156,  29.313
    98.6,0.000286,0.000242, 28,-0.001702,0.000133,  29.317
    98.8,0.000291,0.000245, 28,-0.001540,0.000156,  29.313
    99.0,0.000299,0.000255, 28,-0.001235,0.000156,  29.313
    99.2,0.000304,0.000259, 28,-0.001105,0.000133,  29.314
    99.4,0.000306,0.000265, 28,-0.000972,0.000169,  29.309
    99.6,0.000311,0.000271, 28,-0.000859,0.000169,  29.313
    99.8,0.000319,0.000279, 28,-0.000800,0.000133,  29.309
   100.0,0.000321,0.000282, 28,-0.000765,0.000156,  29.312
   100.2,0.000326,0.000292, 28,-0.000774,0.000156,  29.306
   100.4,0.000329,0.000301, 28,-0.000750,0.000133,  29.310
   100.6,0.000337,0.000306, 28,-0.000723,0.000169,  29.305
   100.8,0.000340,0.000310, 28,-0.000694,0.000169,  29.292
   101.0,0.000339,0.000315, 28,-0.000625,0.000133,  29.295
   101.2,0.000336,0.000318, 28,-0.000555,0.000169,  29.295
   101.4,0.000336,0.000320, 28,-0.000458,0.000169,  29.297
   101.6,0.000333,0.000323, 28,-0.000403,0.000146,  29.298
   101.8,0.000336,0.000328, 28,-0.000359,0.000182,  29.295
   102.0,0.000339,0.000333, 28,-0.000328,0.000195,  29.294
   102.2,0.000335,0.000342, 28,-0.000333,0.000159,  29.291
   102.4,0.000335,0.000343, 28,-0.000357,0.000195,  29.294
   102.6,0.000335,0.000346, 28,-0.000410,0.000195,  29.293
   102.8,0.000333,0.000344, 28,-0.000410,0.000159,  29.290
   103.0,0.000328,0.000341, 28,-0.000389,0.000182,  29.292
   103.2,0.000325,0.000339, 28,-0.000371,0.000182,  29.290
   103.4,0.000323,0.000339, 28,-0.000335,0.000182,  29.290
   103.6,0.000318,0.000338, 28,-0.000372,0.000195,  29.290
   103.8,0.000318,0.000340, 28,-0.000436,0.000182,  29.288
   104.0,0.000318,0.000344, 28,-0.000535,0.000195,  29.289
   104.2,0.000318,0.000341, 28,-0.000535,0.000195,  29.284
   104.4,0.000318,0.000337, 28,-0.000518,0.000195,  29.287
   104.6,0.000313,0.000335, 28,-0.000458,0.000209,  29.285
   104.8,0.000305,0.000334, 28,-0.000571,0.000159,  29.288
   105.0,0.000305,0.000330, 28,-0.000759,0.000195,  29.286
   105.2,0.000305,0.000326, 28,-0.001021,0.000209,  29.283
   105.4,0.000303,0.000324, 28,-0.001027,0.000159,  29.280
   105.6,0.000303,0.000319, 28,-0.000936,0.000195,  29.277
   105.8,0.000303,0.000315, 28,-0.000762,0.000209,  29.281
   106.0,0.000300,0.000315, 28,-0.000711,0.000159,  29.278
   106.2,0.000300,0.000312, 28,-0.000701,0.000195,  29.277
   106.4,0.000300,0.000307, 28,-0.000709,0.000209,  29.281
   106.6,0.000300,0.000305, 28,-0.000695,0.000159,  29.276
   106.8,0.000300,0.000304, 28,-0.000707,0.000195,  29.278
   107.0,0.000300,0.000305, 28,-0.000709,0.000195,  29.275
   107.2,0.000298,0.000305, 28,-0.000677,0.000159,  29.277
   107.4,0.000301,0.000303, 28,-0.000637,0.000182,  29.271
   107.6,0.000301,0.000296, 28,-0.000576,0.000195,  29.272
   107.8,0.000296,0.000294, 28,-0.000559,0.000159,  29.263
   108.0,0.000294,0.000292, 28,-0.000559,0.000159,  29.264
   108.2,0.000291,0.000293, 28,-0.000573,0.000172,  29.260
   108.4,0.000280,0.000290, 28,-0.000615,0.000159,  29.258
   108.6,0.000279,0.000283, 28,-0.000679,0.000159,  29.260
   108.8,0.000279,0.000285, 28,-0.000762,0.000172,  29.257
   109.0,0.000270,0.000283, 28,-0.000752,0.000159,  29.260
   109.2,0.000276,0.000277, 28,-0.000701,0.000159,  29.257
   109.4,0.000276,0.000278, 28,-0.000617,0.000159,  29.251
   109.6,0.000265,0.000272, 28,-0.000578,0.000159,  29.246
   109.8,0.000266,0.000264, 28,-0.000556,0.000182,  29.245
   110.0,0.000266,0.000265, 28,-0.000540,0.000182,  29.245
   110.2,0.000260,0.000264, 28,-0.000691,0.000146,  29.240
   110.4,0.000266,0.000262, 28,-0.000938,0.000169,  29.241
   110.6,0.000264,0.000263, 28,-0.001283,0.000169,  29.243
   110.8,0.000259,0.000262, 28,-0.001314,0.000133,  29.240
   111.0,0.000260,0.000260, 28,-0.001227,0.000169,  29.236
   111.2,0.000260,0.000261, 28,-0.001047,0.000169,  29.235
   111.4,0.000257,0.000254, 28,-0.000981,0.000133,  29.231
   111.6,0.000260,0.000246, 28,-0.000925,0.000169,  29.224
   111.8,0.000262,0.000247, 28,-0.000865,0.000169,  29.226
   112.0,0.000262,0.000247, 28,-0.000810,0.000169,  29.226
   112.2,0.000262,0.000241, 28,-0.000824,0.000169,  29.225
   112.4,0.000262,0.000244, 28,-0.000862,0.000169,  29.225
   112.6,0.000254,0.000246, 28,-0.000930,0.000169,  29.223
   112.8,0.000246,0.000244, 28,-0.001205,0.000192,  29.218
   113.0,0.000247,0.000245, 28,-0.001593,0.000178,  29.219
   113.2,0.000246,0.000247, 28,-0.002102,0.000178,  29.215
   113.4,0.000251,0.000243, 28,-0.002107,0.000142,  29.213
   113.6,0.000248,0.000239, 28,-0.001913,0.000142,  29.208
   113.8,0.000243,0.000239, 28,-0.001534,0.000142,  29.210
   114.0,0.000239,0.000235, 28,-0.001377,0.000106,  29.212
   114.2,0.000233,0.000231, 28,-0.001235,0.000142,  29.203
   114.4,0.000236,0.000230, 28,-0.001128,0.000142,  29.204
   114.6,0.000242,0.000237, 28,-0.001029,0.000106,  29.206
   114.8,0.000238,0.000237, 28,-0.000945,0.000142,  29.200
   115.0,0.000238,0.000236, 28,-0.000884,0.000142,  29.202
   115.2,0.000244,0.000239, 28,-0.000956,0.000106,  29.199
   115.4,0.000241,0.000233, 28,-0.001111,0.000142,  29.201
   115.6,0.000238,0.000234, 28,-0.001338,0.000142,  29.195
   115.8,0.000238,0.000226, 28,-0.001352,0.000106,  29.192
   116.0,0.000238,0.000220, 28,-0.001299,0.000142,  29.192
   116.2,0.000243,0.000223, 28,-0.001174,0.000142,  29.191
   116.4,0.000241,0.000225, 28,-0.001091,0.000106,  29.186
   116.6,0.000243,0.000223, 28,-0.000990,0.000142,  29.181
   116.8,0.000240,0.000222, 28,-0.000881,0.000142,  29.181
   117.0,0.000242,0.000226, 28,-0.000835,0.000106,  29.184
   117.2,0.000245,0.000228, 28,-0.000814,0.000142,  29.179
   117.4,0.000241,0.000225, 28,-0.000836,0.000129,  29.176
   117.6,0.000241,0.000227, 28,-0.000821,0.000093,  29.174
   117.8,0.000245,0.000226, 28,-0.000799,0.000129,  29.175
   118.0,0.000245,0.000228, 28,-0.000784,0.000116,  29.173
   118.2,0.000247,0.000228, 28,-0.000767,0.000080,  29.174
   118.4,0.000250,0.000230, 28,-0.000756,0.000129,  29.173
   118.6,0.000250,0.000232, 28,-0.000741,0.000129,  29.173
   118.8,0.000250,0.000232, 28,-0.000755,0.000093,  29.174
   119.0,0.000250,0.000232, 28,-0.000792,0.000129,  29.168
   119.2,0.000250,0.000234, 28,-0.000828,0.000142,  29.170
   119.4,0.000250,0.000240, 28,-0.000813,0.000106,  29.172
   119.6,0.000250,0.000240, 28,-0.000782,0.000142,  29.166
   119.8,0.000250,0.000234, 28,-0.000724,0.000142,  29.171
   120.0,0.000252,0.000232, 28,-0.000688,0.000106,  29.168
   120.2,0.000252,0.000230, 28,-0.000657,0.000129,  29.171
   120.4,0.000255,0.000230, 28,-0.000635,0.000129,  29.166
   120.6,0.000251,0.000229, 28,-0.000611,0.000093,  29.168
   120.8,0.000251,0.000231, 28,-0.000602,0.000142,  29.169
   121.0,0.000254,0.000231, 28,-0.000597,0.000142,  29.163
   121.2,0.000250,0.000237, 28,-0.000613,0.000156,  29.166
   121.4,0.000259,0.000237, 28,-0.000659,0.000142,  29.170
   121.6,0.000261,0.000236, 28,-0.000739,0.000142,  29.166
   121.8,0.000260,0.000240, 28,-0.000848,0.000156,  29.168
   122.0,0.000269,0.000242, 28,-0.000857,0.000142,  29.168
   122.2,0.000271,0.000236, 28,-0.000843,0.000129,  29.170
   122.4,0.000268,0.000239, 28,-0.000797,0.000129,  29.166
   122.6,0.000269,0.000241, 28,-0.000759,0.000093,  29.168
   122.8,0.000271,0.000243, 28,-0.000722,0.000142,  29.167
   123.0,0.000270,0.000243, 28,-0.000670,0.000156,  29.169
   123.2,0.000281,0.000247, 28,-0.000640,0.000119,  29.168
   123.4,0.000284,0.000249, 28,-0.000617,0.000142,  29.170
   123.6,0.000278,0.000251, 28,-0.000597,0.000142,  29.172
   123.8,0.000284,0.000253, 28,-0.000575,0.000119,  29.171
   124.0,0.000286,0.000256, 28,-0.000547,0.000156,  29.170
   124.2,0.000289,0.000252, 28,-0.000520,0.000156,  29.173
   124.4,0.000292,0.000252, 28,-0.000497,0.000133,  29.173
   124.6,0.000292,0.000252, 28,-0.000487,0.000119,  29.169
   124.8,0.000297,0.000252, 28,-0.000467,0.000119,  29.170
   125.0,0.000297,0.000254, 28,-0.000438,0.000119,  29.169
   125.2,0.000300,0.000252, 28,-0.000415,0.000106,  29.170
   125.4,0.000302,0.000251, 28,-0.000386,0.000106,  29.170
   125.6,0.000305,0.000251, 28,-0.000357,0.000106,  29.172
   125.8,0.000305,0.000248, 28,-0.000337,0.000106,  29.169
   126.0,0.000310,0.000250, 28,-0.000316,0.000106,  29.170
   126.2,0.000306,0.000252, 28,-0.000307,0.000106,  29.167
   126.4,0.000311,0.000248, 28,-0.000309,0.000106,  29.167
   126.6,0.000316,0.000255, 28,-0.000306,0.000106,  29.163
   126.8,0.000315,0.000253, 28,-0.000276,0.000106,  29.166
   127.0,0.000326,0.000253, 28,-0.000240,0.000106,  29.166
   127.2,0.000329,0.000261, 28,-0.000186,0.000106,  29.165
   127.4,0.000328,0.000266, 28,-0.000155,0.000106,  29.164
   127.6,0.000336,0.000267, 28,-0.000120,0.000142,  29.162
   127.8,0.000341,0.000271, 28,-0.000100,0.000142,  29.161
   128.0,0.000344,0.000269, 28,-0.000064,0.000106,  29.159
   128.2,0.000350,0.000268, 28,-0.000028,0.000142,  29.159
   128.4,0.000355,0.000272, 28,0.000005,0.000142,  29.159
   128.6,0.000357,0.000272, 28,-0.000009,0.000106,  29.158
   128.8,0.000360,0.000270, 28,-0.000050,0.000142,  29.156
   129.0,0.000366,0.000276, 28,-0.000118,0.000142,  29.158
   129.2,0.000375,0.000281, 28,-0.000121,0.000106,  29.157
   129.4,0.000377,0.000282, 28,-0.000102,0.000142,  29.157
   129.6,0.000382,0.000283, 28,-0.000060,0.000142,  29.156
   129.8,0.000386,0.000288, 28,-0.000008,0.000156,  29.156
   130.0,0.000389,0.000289, 28,0.000018,0.000142,  29.159
   130.2,0.000391,0.000295, 28,0.000037,0.000142,  29.157
   130.4,0.000398,0.000301, 28,0.000047,0.000156,  29.162
   130.6,0.000406,0.000303, 28,0.000088,0.000142,  29.153
   130.8,0.000414,0.000308, 28,0.000145,0.000142,  29.156
   131.0,0.000418,0.000309, 28,0.000203,0.000142,  29.157
   131.2,0.000431,0.000311, 28,0.000254,0.000106,  29.158
   131.4,0.000435,0.000315, 28,0.000316,0.000142,  29.158
   131.6,0.000436,0.000315, 28,0.000385,0.000142,  29.158
   131.8,0.000443,0.000318, 28,0.000449,0.000106,  29.155
   132.0,0.000447,0.000320, 28,0.000512,0.000142,  29.155
   132.2,0.000457,0.000324, 28,0.000569,0.000142,  29.158
   132.4,0.000458,0.000324, 28,0.000634,0.000106,  29.155
   132.6,0.000462,0.000322, 28,0.000704,0.000142,  29.157
   132.8,0.000470,0.000325, 28,0.000782,0.000142,  29.161
   133.0,0.000480,0.000331, 28,0.000832,0.000106,  29.160
   133.2,0.000482,0.000332, 28,0.000880,0.000142,  29.159
   133.4,0.000487,0.000338, 28,0.000919,0.000142,  29.155
   133.6,0.000494,0.000349, 28,0.000950,0.000106,  29.161
   133.8,0.000503,0.000351, 28,0.000975,0.000142,  29.158
   134.0,0.000510,0.000356, 28,0.000995,0.000142,  29.156
   134.2,0.000512,0.000364, 28,0.001081,0.000106,  29.156
   134.4,0.000519,0.000363, 28,0.001197,0.000142,  29.161
   134.6,0.000529,0.000363, 28,0.001336,0.000142,  29.162
   134.8,0.000531,0.000366, 28,0.001312,0.000119,  29.159
   135.0,0.000544,0.000365, 28,0.001224,0.000156,  29.158
   135.2,0.000557,0.000369, 28,0.001060,0.000156,  29.160
   135.4,0.000561,0.000373, 28,0.001115,0.000133,  29.159
   135.6,0.000571,0.000376, 28,0.001254,0.000156,  29.159
   135.8,0.000583,0.000383, 28,0.001483,0.000142,  29.161
   136.0,0.000593,0.000386, 28,0.001622,0.000142,  29.162
   136.2,0.000603,0.000388, 28,0.001762,0.000165,  29.161
   136.4,0.000613,0.000392, 28,0.001906,0.000152,  29.161
   136.6,0.000621,0.000399, 28,0.002042,0.000152,  29.160
   136.8,0.000628,0.000399, 28,0.002163,0.000165,  29.161
   137.0,0.000638,0.000406, 28,0.002277,0.000178,  29.159
   137.2,0.000648,0.000418, 28,0.002362,0.000178,  29.158
   137.4,0.000658,0.000423, 28,0.002436,0.000178,  29.160
   137.6,0.000668,0.000428, 28,0.002482,0.000192,  29.164
   137.8,0.000681,0.000437, 28,0.002519,0.000192,  29.156
   138.0,0.000691,0.000441, 28,0.002595,0.000178,  29.159
   138.2,0.000704,0.000446, 28,0.002664,0.000178,  29.159
   138.4,0.000710,0.000452, 28,0.002759,0.000192,  29.158
   138.6,0.000720,0.000455, 28,0.002831,0.000142,  29.159
   138.8,0.000730,0.000464, 28,0.002890,0.000178,  29.159
   139.0,0.000734,0.000477, 28,0.002951,0.000192,  29.156
   139.2,0.000750,0.000482, 28,0.003030,0.000142,  29.160
   139.4,0.000763,0.000490, 28,0.003113,0.000142,  29.156
   139.6,0.000764,0.000497, 28,0.003195,0.000142,  29.162
   139.8,0.000778,0.000498, 28,0.003300,0.000106,  29.159
   140.0,0.000788,0.000505, 28,0.003412,0.000142,  29.161
   140.2,0.000792,0.000509, 28,0.003546,0.000142,  29.159
   140.4,0.000808,0.000515, 28,0.003437,0.000119,  29.160
   140.6,0.000823,0.000516, 28,0.003207,0.000156,  29.160
   140.8,0.000829,0.000523, 28,0.002872,0.000156,  29.158
   141.0,0.000850,0.000530, 28,0.002967,0.000133,  29.157
   141.2,0.000865,0.000534, 28,0.003214,0.000156,  29.158
   141.4,0.000876,0.000541, 28,0.003613,0.000156,  29.155
   141.6,0.000891,0.000547, 28,0.003831,0.000133,  29.159
   141.8,0.000902,0.000550, 28,0.004041,0.000156,  29.159
   142.0,0.000908,0.000556, 28,0.004230,0.000156,  29.159
   142.2,0.000919,0.000563, 28,0.004394,0.000133,  29.160
   142.4,0.000927,0.000565, 28,0.004543,0.000156,  29.159
   142.6,0.000939,0.000573, 28,0.004675,0.000156,  29.161
   142.8,0.000949,0.000583, 28,0.004863,0.000133,  29.160
   143.0,0.000959,0.000592, 28,0.005052,0.000156,  29.158
   143.2,0.000972,0.000591, 28,0.005269,0.000156,  29.166
   143.4,0.000984,0.000597, 28,0.005441,0.000133,  29.161
   143.6,0.000994,0.000604, 28,0.005584,0.000156,  29.165
   143.8,0.001009,0.000611, 28,0.005721,0.000156,  29.165
   144.0,0.001024,0.000616, 28,0.005799,0.000133,  29.162
   144.2,0.001042,0.000619, 28,0.005850,0.000156,  29.162
   144.4,0.001057,0.000634, 28,0.005855,0.000156,  29.165
   144.6,0.001072,0.000641, 28,0.005982,0.000133,  29.167
   144.8,0.001091,0.000644, 28,0.006159,0.000156,  29.167
   145.0,0.001108,0.000652, 28,0.006372,0.000156,  29.170
   145.2,0.001115,0.000662, 28,0.006538,0.000133,  29.171
   145.4,0.001131,0.000667, 28,0.006701,0.000156,  29.162
   145.6,0.001148,0.000676, 28,0.006857,0.000142,  29.167
   145.8,0.001157,0.000686, 28,0.006984,0.000106,  29.166
   146.0,0.001178,0.000693, 28,0.007096,0.000129,  29.166
   146.2,0.001196,0.000704, 28,0.007181,0.000129,  29.162
   146.4,0.001202,0.000709, 28,0.007249,0.000129,  29.168
   146.6,0.001221,0.000717, 28,0.007280,0.000129,  29.168
   146.8,0.001239,0.000726, 28,0.007280,0.000129,  29.164
   147.0,0.001248,0.000741, 28,0.007250,0.000142,  29.166
   147.2,0.001266,0.000746, 28,0.007414,0.000142,  29.165
   147.4,0.001284,0.000752, 28,0.007662,0.000129,  29.164
   147.6,0.001293,0.000760, 28,0.007997,0.000142,  29.166
   147.8,0.001308,0.000766, 28,0.008200,0.000106,  29.163
   148.0,0.001325,0.000776, 28,0.008377,0.000142,  29.164
   148.2,0.001338,0.000794, 28,0.008536,0.000156,  29.163
   148.4,0.001353,0.000803, 28,0.008713,0.000133,  29.163
   148.6,0.001368,0.000806, 28,0.008874,0.000156,  29.162
   148.8,0.001381,0.000814, 28,0.009023,0.000156,  29.159
   149.0,0.001397,0.000820, 28,0.009179,0.000133,  29.159
   149.2,0.001412,0.000825, 28,0.009331,0.000156,  29.159
   149.4,0.001421,0.000832, 28,0.009472,0.000156,  29.154
   149.6,0.001439,0.000844, 28,0.009637,0.000133,  29.155
   149.8,0.001457,0.000849, 28,0.009814,0.000156,  29.152
   150.0,0.001466,0.000860, 28,0.009999,0.000156,  29.152
   150.2,0.001489,0.000871, 28,0.010128,0.000169,  29.153
   150.4,0.001502,0.000878, 28,0.010228,0.000192,  29.148
   150.6,0.001520,0.000884, 28,0.010314,0.000192,  29.152
   150.8,0.001527,0.000890, 28,0.010446,0.000169,  29.151
   151.0,0.001537,0.000897, 28,0.010592,0.000169,  29.149
   151.2,0.001550,0.000900, 28,0.010748,0.000169,  29.150
   151.4,0.001565,0.000912, 28,0.010889,0.000133,  29.154
   151.6,0.001580,0.000919, 28,0.011042,0.000169,  29.152
   151.8,0.001597,0.000926, 28,0.011193,0.000169,  29.152
   152.0,0.001615,0.000936, 28,0.011366,0.000133,  29.151
   152.2,0.001641,0.000945, 28,0.011553,0.000156,  29.155
   152.4,0.001656,0.000952, 28,0.011754,0.000156,  29.153
   152.6,0.001671,0.000964, 28,0.011934,0.000133,  29.157
   152.8,0.001686,0.000975, 28,0.012115,0.000156,  29.154
   153.0,0.001704,0.000979, 28,0.012286,0.000156,  29.151
   153.2,0.001721,0.000990, 28,0.012333,0.000133,  29.154
   153.4,0.001736,0.001001, 28,0.012323,0.000156,  29.150
   153.6,0.001754,0.001008, 28,0.012250,0.000156,  29.154
   153.8,0.001772,0.001020, 28,0.012382,0.000119,  29.151
   154.0,0.001782,0.001029, 28,0.012591,0.000142,  29.146
   154.2,0.001797,0.001036, 28,0.012867,0.000129,  29.153
   154.4,0.001814,0.001050, 28,0.013063,0.000129,  29.151
   154.6,0.001827,0.001060, 28,0.013262,0.000165,  29.155
   154.8,0.001843,0.001065, 28,0.013448,0.000165,  29.153
   155.0,0.001862,0.001077, 28,0.013647,0.000178,  29.158
   155.2,0.001877,0.001086, 28,0.013819,0.000205,  29.154
   155.4,0.001892,0.001097, 28,0.013975,0.000169,  29.154
   155.6,0.001912,0.001107, 28,0.014132,0.000218,  29.157
   155.8,0.001923,0.001111, 28,0.014297,0.000133,  29.154
   156.0,0.001931,0.001122, 28,0.014466,0.000169,  29.154
   156.2,0.001948,0.001132, 28,0.014629,0.000169,  29.155
   156.4,0.001960,0.001137, 28,0.014787,0.000169,  29.157
   156.6,0.001972,0.001146, 28,0.014963,0.000169,  29.159
   156.8,0.001989,0.001155, 28,0.015132,0.000169,  29.158
   157.0,0.002010,0.001162, 28,0.015320,0.000133,  29.159
   157.2,0.002025,0.001165, 28,0.015511,0.000169,  29.160
   157.4,0.002043,0.001173, 28,0.015728,0.000169,  29.159
   157.6,0.002058,0.001183, 28,0.015943,0.000133,  29.162
   157.8,0.002073,0.001191, 28,0.016155,0.000169,  29.164
   158.0,0.002088,0.001198, 28,0.016375,0.000169,  29.166
   158.2,0.002101,0.001210, 28,0.016436,0.000146,  29.166
   158.4,0.002116,0.001216, 28,0.016417,0.000182,  29.167
   158.6,0.002128,0.001223, 28,0.016310,0.000182,  29.167
   158.8,0.002143,0.001236, 28,0.016466,0.000159,  29.168
   159.0,0.002158,0.001245, 28,0.016717,0.000182,  29.170
   159.2,0.002169,0.001256, 28,0.017046,0.000182,  29.164
   159.4,0.002188,0.001267, 28,0.017115,0.000159,  29.168
   159.6,0.002200,0.001274, 28,0.017096,0.000182,  29.168
   159.8,0.002213,0.001281, 28,0.016983,0.000182,  29.168
   160.0,0.002226,0.001293, 28,0.017186,0.000159,  29.169
   160.2,0.002236,0.001300, 28,0.017495,0.000182,  29.174
   160.4,0.002251,0.001309, 28,0.017915,0.000182,  29.174
   160.6,0.002266,0.001323, 28,0.018150,0.000159,  29.179
   160.8,0.002281,0.001329, 28,0.018329,0.000182,  29.174
   161.0,0.002296,0.001336, 28,0.018476,0.000182,  29.174
   161.2,0.002303,0.001348, 28,0.018673,0.000159,  29.172
   161.4,0.002321,0.001359, 28,0.018871,0.000182,  29.172
   161.6,0.002334,0.001368, 28,0.019075,0.000182,  29.172
   161.8,0.002340,0.001377, 28,0.019259,0.000146,  29.173
   162.0,0.002356,0.001386, 28,0.019438,0.000169,  29.173
   162.2,0.002371,0.001390, 28,0.019598,0.000169,  29.177
   162.4,0.002378,0.001392, 28,0.019791,0.000146,  29.179
   162.6,0.002399,0.001399, 28,0.019993,0.000182,  29.177
   162.8,0.002414,0.001406, 28,0.020208,0.000182,  29.175
   163.0,0.002421,0.001414, 28,0.020391,0.000159,  29.176
   163.2,0.002437,0.001425, 28,0.020559,0.000182,  29.174
   163.4,0.002452,0.001432, 28,0.020710,0.000182,  29.176
   163.6,0.002459,0.001441, 28,0.020845,0.000159,  29.180
   163.8,0.002475,0.001453, 28,0.020960,0.000182,  29.178
   164.0,0.002485,0.001460, 28,0.021038,0.000182,  29.177
   164.2,0.002497,0.001465, 28,0.021158,0.000159,  29.175
   164.4,0.002511,0.001473, 28,0.021283,0.000182,  29.175
   164.6,0.002521,0.001482, 28,0.021415,0.000182,  29.174
   164.8,0.002533,0.001486, 28,0.021551,0.000182,  29.174
   165.0,0.002546,0.001488, 28,0.021704,0.000195,  29.171
   165.2,0.002556,0.001497, 28,0.021865,0.000182,  29.170
   165.4,0.002566,0.001507, 28,0.022033,0.000195,  29.171
   165.6,0.002574,0.001516, 28,0.021944,0.000195,  29.169
   165.8,0.002586,0.001521, 28,0.021738,0.000182,  29.165
   166.0,0.002596,0.001523, 28,0.021402,0.000182,  29.162
   166.2,0.002604,0.001531, 28,0.021515,0.000159,  29.166
   166.4,0.002614,0.001530, 28,0.021784,0.000182,  29.162
   166.6,0.002618,0.001536, 28,0.022215,0.000182,  29.156
   166.8,0.002628,0.001540, 28,0.022444,0.000159,  29.159
   167.0,0.002641,0.001545, 28,0.022657,0.000182,  29.156
   167.2,0.002651,0.001550, 28,0.022844,0.000182,  29.152
   167.4,0.002667,0.001555, 28,0.023033,0.000159,  29.150
   167.6,0.002679,0.001560, 28,0.023206,0.000182,  29.144
   167.8,0.002692,0.001561, 28,0.023364,0.000182,  29.143
   168.0,0.002702,0.001569, 28,0.023513,0.000159,  29.147
   168.2,0.002712,0.001574, 28,0.023640,0.000182,  29.141
   168.4,0.002720,0.001578, 28,0.023754,0.000182,  29.140
   168.6,0.002719,0.001584, 28,0.023879,0.000146,  29.138
   168.8,0.002721,0.001589, 28,0.023990,0.000169,  29.130
   169.0,0.002731,0.001597, 28,0.024099,0.000169,  29.131
   169.2,0.002739,0.001605, 28,0.024203,0.000133,  29.127
   169.4,0.002749,0.001612, 28,0.024305,0.000169,  29.122
   169.6,0.002759,0.001616, 28,0.024404,0.000169,  29.122
   169.8,0.002763,0.001626, 28,0.024465,0.000133,  29.117
   170.0,0.002774,0.001632, 28,0.024510,0.000169,  29.118
   170.2,0.002784,0.001637, 28,0.024548,0.000169,  29.117
   170.4,0.002786,0.001642, 28,0.024636,0.000133,  29.112
   170.6,0.002802,0.001648, 28,0.024747,0.000156,  29.115
   170.8,0.002812,0.001650, 28,0.024872,0.000156,  29.111
   171.0,0.002822,0.001656, 28,0.024986,0.000133,  29.110
   171.2,0.002840,0.001657, 28,0.025106,0.000156,  29.109
   171.4,0.002851,0.001663, 28,0.025225,0.000156,  29.109
   171.6,0.002858,0.001666, 28,0.025331,0.000133,  29.109
   171.8,0.002866,0.001667, 28,0.025444,0.000156,  29.108
   172.0,0.002876,0.001673, 28,0.025541,0.000156,  29.102
   172.2,0.002883,0.001677, 28,0.025614,0.000133,  29.108
   172.4,0.002888,0.001679, 28,0.025665,0.000156,  29.101
   172.6,0.002896,0.001688, 28,0.025711,0.000156,  29.103
   172.8,0.002906,0.001700, 28,0.025729,0.000133,  29.097
   173.0,0.002914,0.001707, 28,0.025819,0.000156,  29.101
   173.2,0.002921,0.001710, 28,0.025930,0.000156,  29.098
   173.4,0.002929,0.001714, 28,0.026060,0.000156,  29.100
   173.6,0.002934,0.001719, 28,0.026133,0.000169,  29.094
   173.8,0.002941,0.001722, 28,0.026180,0.000156,  29.096
   174.0,0.002949,0.001725, 28,0.026196,0.000169,  29.093
   174.2,0.002956,0.001728, 28,0.026261,0.000169,  29.092
   174.4,0.002962,0.001731, 28,0.026336,0.000156,  29.092
   174.6,0.002974,0.001736, 28,0.026424,0.000156,  29.093
   174.8,0.002981,0.001740, 28,0.026473,0.000133,  29.083
   175.0,0.002989,0.001738, 28,0.026507,0.000156,  29.081
   175.2,0.002995,0.001742, 28,0.026537,0.000156,  29.083
   175.4,0.002998,0.001749, 28,0.026581,0.000133,  29.079
   175.6,0.003003,0.001750, 28,0.026637,0.000156,  29.080
   175.8,0.003010,0.001756, 28,0.026701,0.000156,  29.079
   176.0,0.003019,0.001764, 28,0.026788,0.000133,  29.075
   176.2,0.003020,0.001769, 28,0.026882,0.000156,  29.081
   176.4,0.003030,0.001773, 28,0.026997,0.000156,  29.076
   176.6,0.003038,0.001781, 28,0.027067,0.000133,  29.075
   176.8,0.003045,0.001785, 28,0.027133,0.000156,  29.077
   177.0,0.003053,0.001784, 28,0.027182,0.000156,  29.077
   177.2,0.003058,0.001790, 28,0.027217,0.000133,  29.076
   177.4,0.003063,0.001790, 28,0.027240,0.000156,  29.069
   177.6,0.003071,0.001790, 28,0.027241,0.000156,  29.076
   177.8,0.003073,0.001799, 28,0.027129,0.000133,  29.073
   178.0,0.003078,0.001800, 28,0.026937,0.000156,  29.075
   178.2,0.003081,0.001803, 28,0.026682,0.000156,  29.069
   178.4,0.003083,0.001808, 28,0.026718,0.000133,  29.068
   178.6,0.003086,0.001812, 28,0.026867,0.000156,  29.073
   178.8,0.003088,0.001820, 28,0.027115,0.000156,  29.073
   179.0,0.003091,0.001823, 28,0.027257,0.000133,  29.074
   179.2,0.003096,0.001825, 28,0.027392,0.000156,  29.073
   179.4,0.003101,0.001824, 28,0.027514,0.000156,  29.071
   179.6,0.003103,0.001826, 28,0.027572,0.000133,  29.069
   179.8,0.003108,0.001828, 28,0.027599,0.000169,  29.069
   180.0,0.003113,0.001824, 28,0.027593,0.000169,  29.075
   180.2,0.003116,0.001828, 28,0.027485,0.000133,  29.072
   180.4,0.003118,0.001832, 28,0.027308,0.000169,  29.070
   180.6,0.003121,0.001829, 28,0.027064,0.000169,  29.066
   180.8,0.003126,0.001833, 28,0.027127,0.000133,  29.069
   181.0,0.003129,0.001834, 28,0.027300,0.000169,  29.071
   181.2,0.003134,0.001838, 28,0.027587,0.000169,  29.069
   181.4,0.003134,0.001837, 28,0.027691,0.000133,  29.071
   181.6,0.003131,0.001836, 28,0.027759,0.000169,  29.080
   181.8,0.003128,0.001840, 28,0.027781,0.000169,  29.074
   182.0,0.003128,0.001842, 28,0.027776,0.000133,  29.075
   182.2,0.003128,0.001842, 28,0.027723,0.000169,  29.079
   182.4,0.003127,0.001841, 28,0.027645,0.000169,  29.072
   182.6,0.003129,0.001848, 28,0.027529,0.000169,  29.073
   182.8,0.003138,0.001850, 28,0.027553,0.000169,  29.076
   183.0,0.003140,0.001846, 28,0.027614,0.000169,  29.071
   183.2,0.003143,0.001850, 28,0.027696,0.000133,  29.076
   183.4,0.003143,0.001851, 28,0.027772,0.000133,  29.075
   183.6,0.003143,0.001849, 28,0.027869,0.000133,  29.074
   183.8,0.003143,0.001853, 28,0.027967,0.000133,  29.075
   184.0,0.003140,0.001856, 28,0.028025,0.000146,  29.077
   184.2,0.003140,0.001855, 28,0.028051,0.000146,  29.068
   184.4,0.003140,0.001862, 28,0.028058,0.000146,  29.071
   184.6,0.003138,0.001861, 28,0.028099,0.000159,  29.078
   184.8,0.003141,0.001856, 28,0.028135,0.000182,  29.079
   185.0,0.003141,0.001854, 28,0.028176,0.000182,  29.081
   185.2,0.003139,0.001854, 28,0.028176,0.000159,  29.081
   185.4,0.003145,0.001849, 28,0.028159,0.000182,  29.075
   185.6,0.003145,0.001854, 28,0.028131,0.000182,  29.073
   185.8,0.003139,0.001856, 28,0.028095,0.000159,  29.076
   186.0,0.003136,0.001849, 28,0.028037,0.000182,  29.076
   186.2,0.003136,0.001851, 28,0.027963,0.000182,  29.076
   186.4,0.003134,0.001849, 28,0.027943,0.000159,  29.076
   186.6,0.003131,0.001846, 28,0.027950,0.000182,  29.076
   186.8,0.003134,0.001843, 28,0.027974,0.000182,  29.070
   187.0,0.003131,0.001845, 28,0.027926,0.000146,  29.073
   187.2,0.003131,0.001847, 28,0.027844,0.000169,  29.074
   187.4,0.003131,0.001843, 28,0.027749,0.000169,  29.067
   187.6,0.003126,0.001845, 28,0.027742,0.000133,  29.077
   187.8,0.003127,0.001846, 28,0.027753,0.000169,  29.076
   188.0,0.003118,0.001842, 28,0.027791,0.000169,  29.076
   188.2,0.003116,0.001846, 28,0.027803,0.000133,  29.077
   188.4,0.003117,0.001848, 28,0.027805,0.000169,  29.077
   188.6,0.003108,0.001844, 28,0.027800,0.000169,  29.075
   188.8,0.003103,0.001848, 28,0.027794,0.000133,  29.077
   189.0,0.003104,0.001847, 28,0.027794,0.000169,  29.077
   189.2,0.003098,0.001842, 28,0.027782,0.000169,  29.080
   189.4,0.003098,0.001838, 28,0.027788,0.000133,  29.077
   189.6,0.003098,0.001834, 28,0.027817,0.000169,  29.079
   189.8,0.003096,0.001833, 28,0.027854,0.000169,  29.078
   190.0,0.003093,0.001825, 28,0.027842,0.000133,  29.081
   190.2,0.003091,0.001819, 28,0.027796,0.000169,  29.080
   190.4,0.003088,0.001814, 28,0.027736,0.000169,  29.080
   190.6,0.003083,0.001814, 28,0.027714,0.000133,  29.081
   190.8,0.003081,0.001810, 28,0.027709,0.000169,  29.086
   191.0,0.003078,0.001804, 28,0.027704,0.000169,  29.085
   191.2,0.003076,0.001806, 28,0.027713,0.000169,  29.084
   191.4,0.003071,0.001806, 28,0.027708,0.000169,  29.085
   191.6,0.003068,0.001803, 28,0.027705,0.000169,  29.082
   191.8,0.003066,0.001804, 28,0.027702,0.000169,  29.081
   192.0,0.003061,0.001807, 28,0.027584,0.000169,  29.080
   192.2,0.003052,0.001800, 28,0.027398,0.000169,  29.083
   192.4,0.003050,0.001799, 28,0.027156,0.000169,  29.080
   192.6,0.003044,0.001795, 28,0.027093,0.000133,  29.078
   192.8,0.003036,0.001790, 28,0.027073,0.000169,  29.075
   193.0,0.003031,0.001795, 28,0.027116,0.000169,  29.076
   193.2,0.003034,0.001793, 28,0.027068,0.000133,  29.075
   193.4,0.003032,0.001787, 28,0.026989,0.000156,  29.070
   193.6,0.003027,0.001790, 28,0.026896,0.000156,  29.072
   193.8,0.003022,0.001788, 28,0.026909,0.000133,  29.073
   194.0,0.003017,0.001784, 28,0.026973,0.000156,  29.068
   194.2,0.003012,0.001782, 28,0.027067,0.000156,  29.064
   194.4,0.003004,0.001784, 28,0.027035,0.000133,  29.061
   194.6,0.002999,0.001780, 28,0.026972,0.000156,  29.057
   194.8,0.002997,0.001778, 28,0.026867,0.000156,  29.055
   195.0,0.002992,0.001773, 28,0.026538,0.000156,  29.053
   195.2,0.002987,0.001768, 28,0.026071,0.000178,  29.055
   195.4,0.002984,0.001767, 28,0.025476,0.000178,  29.052
   195.6,0.002974,0.001764, 28,0.025416,0.000178,  29.054
   195.8,0.002966,0.001760, 28,0.025544,0.000178,  29.051
   196.0,0.002964,0.001750, 28,0.025870,0.000178,  29.050
   196.2,0.002959,0.001748, 28,0.025948,0.000156,  29.049
   196.4,0.002956,0.001749, 28,0.025995,0.000169,  29.039
   196.6,0.002954,0.001746, 28,0.026009,0.000169,  29.044
   196.8,0.002943,0.001743, 28,0.026070,0.000169,  29.043
   197.0,0.002938,0.001739, 28,0.026119,0.000192,  29.045
   197.2,0.002933,0.001738, 28,0.026170,0.000228,  29.041
   197.4,0.002928,0.001732, 28,0.026167,0.000228,  29.039
   197.6,0.002929,0.001724, 28,0.026124,0.000215,  29.042
   197.8,0.002932,0.001720, 28,0.026052,0.000215,  29.040
   198.0,0.002930,0.001721, 28,0.026045,0.000215,  29.038
   198.2,0.002925,0.001719, 28,0.026061,0.000178,  29.042
   198.4,0.002928,0.001713, 28,0.026091,0.000142,  29.040
   198.6,0.002925,0.001711, 28,0.026009,0.000142,  29.039
   198.8,0.002912,0.001711, 28,0.025884,0.000178,  29.041
   199.0,0.002907,0.001709, 28,0.025700,0.000178,  29.039
   199.2,0.002899,0.001710, 28,0.025632,0.000156,  29.034
   199.4,0.002895,0.001710, 28,0.025605,0.000156,  29.036
   199.6,0.002887,0.001709, 28,0.025595,0.000119,  29.035
   199.8,0.002879,0.001710, 28,0.025630,0.000169,  29.035
   200.0,0.002878,0.001708, 28,0.025638,0.000133,  29.035
   200.2,0.002869,0.001704, 28,0.025647,0.000156,  29.033
   200.4,0.002864,0.001702, 28,0.025670,0.000169,  29.034
   200.6,0.002859,0.001693, 28,0.025652,0.000169,  29.032
   200.8,0.002854,0.001689, 28,0.025618,0.000156,  29.028
   201.0,0.002846,0.001689, 28,0.025565,0.000156,  29.026
   201.2,0.002841,0.001683, 28,0.025497,0.000133,  29.027
   201.4,0.002830,0.001679, 28,0.025411,0.000169,  29.032
   201.6,0.002823,0.001682, 28,0.025308,0.000169,  29.027
   201.8,0.002818,0.001678, 28,0.025266,0.000133,  29.026
   202.0,0.002807,0.001675, 28,0.025241,0.000169,  29.031
   202.2,0.002802,0.001673, 28,0.025235,0.000169,  29.025
   202.4,0.002800,0.001669, 28,0.024986,0.000133,  29.024
   202.6,0.002801,0.001663, 28,0.024631,0.000169,  29.025
   202.8,0.002796,0.001662, 28,0.024164,0.000169,  29.022
   203.0,0.002783,0.001658, 28,0.023928,0.000146,  29.018
   203.2,0.002782,0.001659, 28,0.023754,0.000182,  29.016
   203.4,0.002777,0.001659, 28,0.023635,0.000182,  29.021
   203.6,0.002763,0.001654, 28,0.023672,0.000159,  29.016
   203.8,0.002758,0.001646, 28,0.023802,0.000182,  29.018
   204.0,0.002751,0.001645, 28,0.024033,0.000182,  29.020
   204.2,0.002746,0.001634, 28,0.024128,0.000159,  29.021
   204.4,0.002741,0.001628, 28,0.024193,0.000182,  29.020
   204.6,0.002733,0.001619, 28,0.024232,0.000182,  29.021
   204.8,0.002731,0.001618, 28,0.024274,0.000159,  29.022
   205.0,0.002723,0.001613, 28,0.024291,0.000182,  29.023
   205.2,0.002718,0.001610, 28,0.024307,0.000182,  29.017
   205.4,0.002710,0.001609, 28,0.024272,0.000159,  29.023
   205.6,0.002703,0.001605, 28,0.024198,0.000182,  29.026
   205.8,0.002698,0.001603, 28,0.024095,0.000182,  29.025
   206.0,0.002693,0.001602, 28,0.024037,0.000159,  29.024
   206.2,0.002685,0.001602, 28,0.023986,0.000182,  29.025
   206.4,0.002674,0.001593, 28,0.023945,0.000182,  29.023
   206.6,0.002667,0.001591, 28,0.023903,0.000159,  29.028
   206.8,0.002659,0.001589, 28,0.023867,0.000182,  29.033
   207.0,0.002648,0.001581, 28,0.023826,0.000182,  29.038
   207.2,0.002640,0.001577, 28,0.023801,0.000159,  29.034
   207.4,0.002641,0.001577, 28,0.023778,0.000182,  29.035
   207.6,0.002636,0.001569, 28,0.023762,0.000182,  29.045
   207.8,0.002620,0.001569, 28,0.023699,0.000159,  29.043
   208.0,0.002610,0.001564, 28,0.023623,0.000182,  29.046
   208.2,0.002603,0.001556, 28,0.023520,0.000182,  29.048
   208.4,0.002598,0.001550, 28,0.023469,0.000159,  29.045
   208.6,0.002599,0.001541, 28,0.023442,0.000182,  29.056
   208.8,0.002595,0.001541, 28,0.023418,0.000182,  29.055
   209.0,0.002588,0.001537, 28,0.023422,0.000159,  29.059
   209.2,0.002585,0.001536, 28,0.023269,0.000182,  29.054
   209.4,0.002577,0.001529, 28,0.023064,0.000182,  29.058
   209.6,0.002566,0.001530, 28,0.022810,0.000182,  29.064
   209.8,0.002558,0.001528, 28,0.022707,0.000182,  29.060
   210.0,0.002547,0.001527, 28,0.022663,0.000169,  29.064
   210.2,0.002539,0.001522, 28,0.022676,0.000169,  29.065
   210.4,0.002532,0.001516, 28,0.022621,0.000169,  29.061
   210.6,0.002527,0.001514, 28,0.022568,0.000169,  29.069
   210.8,0.002522,0.001508, 28,0.022496,0.000169,  29.069
   211.0,0.002514,0.001506, 28,0.022464,0.000133,  29.069
   211.2,0.002509,0.001502, 28,0.022446,0.000169,  29.076
   211.4,0.002504,0.001500, 28,0.022423,0.000169,  29.081
   211.6,0.002499,0.001500, 28,0.022351,0.000133,  29.085
   211.8,0.002488,0.001492, 28,0.022260,0.000169,  29.087
   212.0,0.002483,0.001486, 28,0.022144,0.000169,  29.089
   212.2,0.002476,0.001483, 28,0.022112,0.000133,  29.087
   212.4,0.002473,0.001477, 28,0.022096,0.000169,  29.087
   212.6,0.002468,0.001473, 28,0.022106,0.000169,  29.097
   212.8,0.002469,0.001470, 28,0.022076,0.000133,  29.093
   213.0,0.002464,0.001461, 28,0.022049,0.000169,  29.099
   213.2,0.002459,0.001460, 28,0.022008,0.000169,  29.100
   213.4,0.002443,0.001455, 28,0.021926,0.000133,  29.106
   213.6,0.002435,0.001451, 28,0.021829,0.000169,  29.108
   213.8,0.002433,0.001453, 28,0.021717,0.000169,  29.109
   214.0,0.002425,0.001452, 28,0.021683,0.000133,  29.102
   214.2,0.002426,0.001448, 28,0.021663,0.000169,  29.111
   214.4,0.002427,0.001447, 28,0.021678,0.000169,  29.111
   214.6,0.002422,0.001438, 28,0.021637,0.000133,  29.111
   214.8,0.002406,0.001434, 28,0.021579,0.000169,  29.117
   215.0,0.002395,0.001430, 28,0.021508,0.000169,  29.117
   215.2,0.002387,0.001431, 28,0.021441,0.000146,  29.115
   215.4,0.002380,0.001425, 28,0.021374,0.000182,  29.115
   215.6,0.002369,0.001425, 28,0.021289,0.000182,  29.124
   215.8,0.002361,0.001423, 28,0.021222,0.000159,  29.125
   216.0,0.002357,0.001417, 28,0.021157,0.000182,  29.122
   216.2,0.002352,0.001416, 28,0.021090,0.000182,  29.126
   216.4,0.002345,0.001411, 28,0.021034,0.000159,  29.124
   216.6,0.002335,0.001405, 28,0.020993,0.000182,  29.131
   216.8,0.002330,0.001400, 28,0.020952,0.000182,  29.130
   217.0,0.002322,0.001396, 28,0.020887,0.000159,  29.133
   217.2,0.002315,0.001391, 28,0.020820,0.000182,  29.133
   217.4,0.002310,0.001384, 28,0.020751,0.000182,  29.135
   217.6,0.002299,0.001386, 28,0.020723,0.000159,  29.140
   217.8,0.002289,0.001381, 28,0.020698,0.000146,  29.139
   218.0,0.002284,0.001373, 28,0.020695,0.000146,  29.139
   218.2,0.002274,0.001367, 28,0.020695,0.000159,  29.144
   218.4,0.002264,0.001357, 28,0.020671,0.000146,  29.140
   218.6,0.002265,0.001358, 28,0.020646,0.000146,  29.143
   218.8,0.002258,0.001358, 28,0.020614,0.000146,  29.143
   219.0,0.002253,0.001350, 28,0.020645,0.000159,  29.137
   219.2,0.002254,0.001350, 28,0.020710,0.000182,  29.142
   219.4,0.002243,0.001347, 28,0.020793,0.000195,  29.139
   219.6,0.002230,0.001344, 28,0.020737,0.000195,  29.141
   219.8,0.002225,0.001340, 28,0.020630,0.000182,  29.146
   220.0,0.002217,0.001341, 28,0.020451,0.000182,  29.143
   220.2,0.002210,0.001340, 28,0.020344,0.000159,  29.148
   220.4,0.002205,0.001336, 28,0.020244,0.000182,  29.145
   220.6,0.002197,0.001334, 28,0.020145,0.000182,  29.141
   220.8,0.002193,0.001331, 28,0.020055,0.000159,  29.143
   221.0,0.002182,0.001327, 28,0.019977,0.000182,  29.147
   221.2,0.002175,0.001322, 28,0.019901,0.000182,  29.145
   221.4,0.002173,0.001316, 28,0.019850,0.000159,  29.141
   221.6,0.002160,0.001308, 28,0.019807,0.000182,  29.145
   221.8,0.002152,0.001304, 28,0.019761,0.000182,  29.146
   222.0,0.002150,0.001304, 28,0.019617,0.000159,  29.146
   222.2,0.002145,0.001298, 28,0.019428,0.000182,  29.147
   222.4,0.002137,0.001292, 28,0.019184,0.000182,  29.147
   222.6,0.002132,0.001290, 28,0.019118,0.000159,  29.145
   222.8,0.002133,0.001284, 28,0.019100,0.000182,  29.146
   223.0,0.002122,0.001283, 28,0.019144,0.000182,  29.152
   223.2,0.002114,0.001278, 28,0.019092,0.000146,  29.150
   223.4,0.002113,0.001273, 28,0.019014,0.000169,  29.148
   223.6,0.002102,0.001273, 28,0.018900,0.000169,  29.149
   223.8,0.002097,0.001267, 28,0.018843,0.000133,  29.146
   224.0,0.002092,0.001262, 28,0.018807,0.000169,  29.149
   224.2,0.002087,0.001262, 28,0.018773,0.000169,  29.146
   224.4,0.002079,0.001259, 28,0.018751,0.000146,  29.144
   224.6,0.002069,0.001253, 28,0.018749,0.000182,  29.144
   224.8,0.002064,0.001245, 28,0.018755,0.000182,  29.142
   225.0,0.002057,0.001248, 28,0.018649,0.000159,  29.142
   225.2,0.002052,0.001244, 28,0.018474,0.000182,  29.140
   225.4,0.002041,0.001235, 28,0.018251,0.000182,  29.143
   225.6,0.002031,0.001228, 28,0.018232,0.000159,  29.144
   225.8,0.002027,0.001226, 28,0.018270,0.000182,  29.141
   226.0,0.002016,0.001222, 28,0.018374,0.000182,  29.143
   226.2,0.002006,0.001220, 28,0.018361,0.000159,  29.141
   226.4,0.002005,0.001218, 28,0.018325,0.000182,  29.140
   226.6,0.001994,0.001215, 28,0.018255,0.000182,  29.140
   226.8,0.001986,0.001213, 28,0.018154,0.000182,  29.142
   227.0,0.001985,0.001209, 28,0.018093,0.000195,  29.137
   227.2,0.001974,0.001207, 28,0.018034,0.000182,  29.133
   227.4,0.001969,0.001205, 28,0.017962,0.000195,  29.131
   227.6,0.001967,0.001197, 28,0.017952,0.000195,  29.131
   227.8,0.001958,0.001192, 28,0.017951,0.000182,  29.133
   228.0,0.001951,0.001188, 28,0.017968,0.000182,  29.134
   228.2,0.001949,0.001182, 28,0.017952,0.000182,  29.133
   228.4,0.001941,0.001180, 28,0.017920,0.000192,  29.130
   228.6,0.001936,0.001176, 28,0.017884,0.000192,  29.131
   228.8,0.001937,0.001179, 28,0.017825,0.000205,  29.132
   229.0,0.001926,0.001173, 28,0.017733,0.000192,  29.129
   229.2,0.001918,0.001173, 28,0.017631,0.000192,  29.131
   229.4,0.001919,0.001171, 28,0.017557,0.000218,  29.129
   229.6,0.001908,0.001170, 28,0.017489,0.000218,  29.131
   229.8,0.001907,0.001169, 28,0.017428,0.000218,  29.130
   230.0,0.001908,0.001163, 28,0.017403,0.000232,  29.130
   230.2,0.001903,0.001165, 28,0.017402,0.000218,  29.128
   230.4,0.001892,0.001164, 28,0.017431,0.000218,  29.126
   230.6,0.001890,0.001163, 28,0.017386,0.000218,  29.129
   230.8,0.001885,0.001160, 28,0.017311,0.000192,  29.125
   231.0,0.001874,0.001157, 28,0.017210,0.000192,  29.126
   231.2,0.001875,0.001152, 28,0.017166,0.000218,  29.122
   231.4,0.001870,0.001143, 28,0.017125,0.000218,  29.128
   231.6,0.001861,0.001141, 28,0.017105,0.000218,  29.126
   231.8,0.001862,0.001137, 28,0.017109,0.000232,  29.124
   232.0,0.001855,0.001128, 28,0.017115,0.000218,  29.119
   232.2,0.001844,0.001128, 28,0.017149,0.000232,  29.122
   232.4,0.001845,0.001131, 28,0.017141,0.000195,  29.122
   232.6,0.001840,0.001126, 28,0.017131,0.000195,  29.126
   232.8,0.001831,0.001120, 28,0.017106,0.000195,  29.120
   233.0,0.001835,0.001116, 28,0.017061,0.000159,  29.115
   233.2,0.001832,0.001109, 28,0.017000,0.000182,  29.115
   233.4,0.001826,0.001107, 28,0.016928,0.000195,  29.117
   233.6,0.001827,0.001105, 28,0.016923,0.000159,  29.117
   233.8,0.001820,0.001102, 28,0.016936,0.000195,  29.118
   234.0,0.001809,0.001094, 28,0.016960,0.000209,  29.116
   234.2,0.001810,0.001098, 28,0.016933,0.000159,  29.117
   234.4,0.001802,0.001096, 28,0.016888,0.000195,  29.112
   234.6,0.001791,0.001091, 28,0.016813,0.000195,  29.109
   234.8,0.001792,0.001092, 28,0.016768,0.000182,  29.111
   235.0,0.001787,0.001090, 28,0.016733,0.000205,  29.108
   235.2,0.001776,0.001084, 28,0.016693,0.000241,  29.108
   235.4,0.001771,0.001082, 28,0.016661,0.000205,  29.112
   235.6,0.001763,0.001082, 28,0.016492,0.000218,  29.110
   235.8,0.001758,0.001078, 28,0.016286,0.000218,  29.110
   236.0,0.001752,0.001080, 28,0.016025,0.000232,  29.109
   236.2,0.001756,0.001078, 28,0.015972,0.000232,  29.108
   236.4,0.001747,0.001075, 28,0.015997,0.000218,  29.108
   236.6,0.001746,0.001074, 28,0.016099,0.000218,  29.107
   236.8,0.001742,0.001071, 28,0.016008,0.000232,  29.108
   237.0,0.001733,0.001071, 28,0.015854,0.000218,  29.109
   237.2,0.001728,0.001071, 28,0.015632,0.000218,  29.107
   237.4,0.001723,0.001072, 28,0.015656,0.000232,  29.105
   237.6,0.001712,0.001070, 28,0.015783,0.000218,  29.109
   237.8,0.001710,0.001070, 28,0.015985,0.000218,  29.109
   238.0,0.001708,0.001066, 28,0.015872,0.000232,  29.106
   238.2,0.001697,0.001064, 28,0.015659,0.000218,  29.107
   238.4,0.001692,0.001054, 28,0.015327,0.000232,  29.107
   238.6,0.001691,0.001049, 28,0.015345,0.000232,  29.109
   238.8,0.001682,0.001041, 28,0.015469,0.000232,  29.108
   239.0,0.001680,0.001039, 28,0.015710,0.000245,  29.110
   239.2,0.001675,0.001035, 28,0.015776,0.000232,  29.109
   239.4,0.001672,0.001029, 28,0.015801,0.000232,  29.116
   239.6,0.001670,0.001032, 28,0.015794,0.000245,  29.114
   239.8,0.001662,0.001026, 28,0.015823,0.000195,  29.111
   240.0,0.001660,0.001020, 28,0.015845,0.000195,  29.113
   240.2,0.001655,0.001018, 28,0.015872,0.000209,  29.114
   240.4,0.001649,0.001015, 28,0.015894,0.000159,  29.103
   240.6,0.001642,0.001013, 28,0.015905,0.000195,  29.110
   240.8,0.001637,0.001007, 28,0.015914,0.000209,  29.114
   241.0,0.001629,0.001009, 28,0.015879,0.000159,  29.109
   241.2,0.001622,0.001005, 28,0.015811,0.000195,  29.112
   241.4,0.001619,0.000998, 28,0.015723,0.000209,  29.114
   241.6,0.001614,0.001001, 28,0.015714,0.000159,  29.114
   241.8,0.001609,0.000999, 28,0.015736,0.000195,  29.112
   242.0,0.001607,0.000991, 28,0.015796,0.000195,  29.112
   242.2,0.001602,0.000993, 28,0.015785,0.000182,  29.114
   242.4,0.001597,0.000991, 28,0.015759,0.000192,  29.111
   242.6,0.001594,0.000985, 28,0.015717,0.000192,  29.117
   242.8,0.001589,0.000986, 28,0.015719,0.000205,  29.116
   243.0,0.001587,0.000984, 28,0.015725,0.000192,  29.119
   243.2,0.001584,0.000976, 28,0.015731,0.000192,  29.118
   243.4,0.001582,0.000977, 28,0.015708,0.000205,  29.119
   243.6,0.001577,0.000975, 28,0.015668,0.000192,  29.115
   243.8,0.001577,0.000965, 28,0.015598,0.000192,  29.117
   244.0,0.001572,0.000963, 28,0.015584,0.000205,  29.117
   244.2,0.001569,0.000960, 28,0.015591,0.000192,  29.122
   244.4,0.001569,0.000960, 28,0.015590,0.000192,  29.120
   244.6,0.001564,0.000962, 28,0.015615,0.000205,  29.124
   244.8,0.001559,0.000960, 28,0.015556,0.000169,  29.124
   245.0,0.001557,0.000958, 28,0.015484,0.000205,  29.122
   245.2,0.001554,0.000953, 28,0.015388,0.000205,  29.124
   245.4,0.001549,0.000951, 28,0.015361,0.000205,  29.123
   245.6,0.001544,0.000951, 28,0.015365,0.000205,  29.124
   245.8,0.001539,0.000949, 28,0.015397,0.000205,  29.128
   246.0,0.001534,0.000946, 28,0.015392,0.000205,  29.129
   246.2,0.001532,0.000946, 28,0.015373,0.000205,  29.126
   246.4,0.001526,0.000943, 28,0.015347,0.000205,  29.128
   246.6,0.001530,0.000945, 28,0.015299,0.000205,  29.132
   246.8,0.001524,0.000948, 28,0.015220,0.000205,  29.132
   247.0,0.001519,0.000944, 28,0.015123,0.000205,  29.129
   247.2,0.001520,0.000944, 28,0.015088,0.000205,  29.134
   247.4,0.001511,0.000940, 28,0.015088,0.000205,  29.133
   247.6,0.001509,0.000937, 28,0.015101,0.000205,  29.134
   247.8,0.001510,0.000934, 28,0.015105,0.000218,  29.135
   248.0,0.001501,0.000932, 28,0.015115,0.000218,  29.132
   248.2,0.001496,0.000926, 28,0.015141,0.000218,  29.132
   248.4,0.001497,0.000930, 28,0.015135,0.000218,  29.133
   248.6,0.001492,0.000930, 28,0.015134,0.000205,  29.134
   248.8,0.001486,0.000922, 28,0.015103,0.000205,  29.134
   249.0,0.001484,0.000921, 28,0.015075,0.000205,  29.134
   249.2,0.001487,0.000917, 28,0.015046,0.000205,  29.138
   249.4,0.001479,0.000915, 28,0.015021,0.000205,  29.132
   249.6,0.001474,0.000912, 28,0.015002,0.000169,  29.137
   249.8,0.001472,0.000910, 28,0.015002,0.000169,  29.139
   250.0,0.001464,0.000908, 28,0.015016,0.000169,  29.135
   250.2,0.001461,0.000908, 28,0.015011,0.000133,  29.141
   250.4,0.001459,0.000906, 28,0.015009,0.000169,  29.138
   250.6,0.001459,0.000903, 28,0.015002,0.000169,  29.136
   250.8,0.001459,0.000904, 28,0.015027,0.000133,  29.141
   251.0,0.001454,0.000902, 28,0.015045,0.000169,  29.139
   251.2,0.001451,0.000899, 28,0.015079,0.000169,  29.143
   251.4,0.001449,0.000897, 28,0.015081,0.000133,  29.141
   251.6,0.001444,0.000897, 28,0.015067,0.000169,  29.145
   251.8,0.001435,0.000899, 28,0.015044,0.000169,  29.142
   252.0,0.001430,0.000894, 28,0.015022,0.000133,  29.138
   252.2,0.001428,0.000891, 28,0.014999,0.000169,  29.144
   252.4,0.001422,0.000888, 28,0.014969,0.000169,  29.144
   252.6,0.001419,0.000889, 28,0.014938,0.000133,  29.143
   252.8,0.001420,0.000883, 28,0.014917,0.000169,  29.143
   253.0,0.001424,0.000876, 28,0.014897,0.000169,  29.142
   253.2,0.001419,0.000878, 28,0.014872,0.000133,  29.146
   253.4,0.001411,0.000874, 28,0.014867,0.000169,  29.145
   253.6,0.001414,0.000868, 28,0.014872,0.000169,  29.145
   253.8,0.001412,0.000873, 28,0.014879,0.000156,  29.144
   254.0,0.001404,0.000873, 28,0.014897,0.000169,  29.140
   254.2,0.001401,0.000866, 28,0.014917,0.000156,  29.146
   254.4,0.001401,0.000863, 28,0.014949,0.000169,  29.149
   254.6,0.001398,0.000865, 28,0.014965,0.000169,  29.150
   254.8,0.001396,0.000859, 28,0.014962,0.000156,  29.153
   255.0,0.001391,0.000861, 28,0.014953,0.000156,  29.148
   255.2,0.001394,0.000863, 28,0.014930,0.000133,  29.148
   255.4,0.001388,0.000859, 28,0.014891,0.000156,  29.153
   255.6,0.001386,0.000856, 28,0.014840,0.000156,  29.155
   255.8,0.001381,0.000858, 28,0.014794,0.000133,  29.154
   256.0,0.001378,0.000854, 28,0.014738,0.000156,  29.159
   256.2,0.001378,0.000850, 28,0.014681,0.000156,  29.165
   256.4,0.001373,0.000851, 28,0.014685,0.000133,  29.166
   256.6,0.001371,0.000849, 28,0.014726,0.000156,  29.162
   256.8,0.001371,0.000846, 28,0.014800,0.000156,  29.165
   257.0,0.001371,0.000840, 28,0.014843,0.000133,  29.164
   257.2,0.001371,0.000841, 28,0.014882,0.000156,  29.165
   257.4,0.001371,0.000841, 28,0.014930,0.000156,  29.167
   257.6,0.001371,0.000842, 28,0.014923,0.000133,  29.168
   257.8,0.001371,0.000842, 28,0.014896,0.000156,  29.166
   258.0,0.001371,0.000844, 28,0.014832,0.000156,  29.166
   258.2,0.001366,0.000840, 28,0.014823,0.000133,  29.171
   258.4,0.001361,0.000838, 28,0.014830,0.000156,  29.170
   258.6,0.001361,0.000842, 28,0.014832,0.000156,  29.175
   258.8,0.001361,0.000844, 28,0.014841,0.000133,  29.173
   259.0,0.001361,0.000837, 28,0.014864,0.000156,  29.169
   259.2,0.001361,0.000839, 28,0.014885,0.000156,  29.177
   259.4,0.001361,0.000837, 28,0.014894,0.000133,  29.178
   259.6,0.001358,0.000834, 28,0.014896,0.000156,  29.174
   259.8,0.001356,0.000832, 28,0.014901,0.000156,  29.176
   260.0,0.001356,0.000833, 28,0.014914,0.000133,  29.175
   260.2,0.001351,0.000835, 28,0.014912,0.000169,  29.174
   260.4,0.001351,0.000832, 28,0.014910,0.000169,  29.175
   260.6,0.001348,0.000832, 28,0.014940,0.000146,  29.184
   260.8,0.001346,0.000828, 28,0.014971,0.000182,  29.180
   261.0,0.001346,0.000826, 28,0.015005,0.000182,  29.179
   261.2,0.001343,0.000827, 28,0.015021,0.000159,  29.177
   261.4,0.001338,0.000823, 28,0.015042,0.000182,  29.181
   261.6,0.001336,0.000820, 28,0.015035,0.000182,  29.182
   261.8,0.001333,0.000824, 28,0.015033,0.000182,  29.185
   262.0,0.001331,0.000824, 28,0.014881,0.000182,  29.181
   262.2,0.001322,0.000824, 28,0.014659,0.000169,  29.187
   262.4,0.001322,0.000820, 28,0.014368,0.000169,  29.188
   262.6,0.001325,0.000819, 28,0.014368,0.000169,  29.185
   262.8,0.001327,0.000821, 28,0.014477,0.000169,  29.185
   263.0,0.001330,0.000821, 28,0.014682,0.000169,  29.190
   263.2,0.001344,0.000821, 28,0.014793,0.000133,  29.188
   263.4,0.001347,0.000816, 28,0.014895,0.000169,  29.186
   263.6,0.001347,0.000817, 28,0.014997,0.000169,  29.189
   263.8,0.001342,0.000818, 28,0.015074,0.000133,  29.185
   264.0,0.001333,0.000815, 28,0.015122,0.000169,  29.186
   264.2,0.001333,0.000815, 28,0.015147,0.000169,  29.191
   264.4,0.001334,0.000813, 28,0.015158,0.000133,  29.192
   264.6,0.001328,0.000814, 28,0.015145,0.000169,  29.193
   264.8,0.001328,0.000815, 28,0.015109,0.000169,  29.193
   265.0,0.001334,0.000821, 28,0.015105,0.000133,  29.192
   265.2,0.001332,0.000824, 28,0.015089,0.000169,  29.189
   265.4,0.001326,0.000823, 28,0.015092,0.000169,  29.190
   265.6,0.001323,0.000817, 28,0.015117,0.000133,  29.190
   265.8,0.001329,0.000819, 28,0.015171,0.000169,  29.191
   266.0,0.001321,0.000817, 28,0.015239,0.000169,  29.188
   266.2,0.001321,0.000815, 28,0.015269,0.000133,  29.192
   266.4,0.001329,0.000815, 28,0.015283,0.000169,  29.188
   266.6,0.001326,0.000814, 28,0.015289,0.000169,  29.189
   266.8,0.001326,0.000810, 28,0.015294,0.000133,  29.191
   267.0,0.001329,0.000812, 28,0.015290,0.000169,  29.192
   267.2,0.001326,0.000815, 28,0.015265,0.000169,  29.190
   267.4,0.001326,0.000818, 28,0.015309,0.000133,  29.192
   267.6,0.001323,0.000815, 28,0.015363,0.000169,  29.191
   267.8,0.001323,0.000817, 28,0.015435,0.000169,  29.189
   268.0,0.001323,0.000816, 28,0.015474,0.000133,  29.189
   268.2,0.001318,0.000814, 28,0.015510,0.000156,  29.189
   268.4,0.001318,0.000812, 28,0.015524,0.000156,  29.189
   268.6,0.001318,0.000814, 28,0.015538,0.000133,  29.187
   268.8,0.001322,0.000812, 28,0.015550,0.000169,  29.186
   269.0,0.001316,0.000811, 28,0.015556,0.000169,  29.188
   269.2,0.001316,0.000811, 28,0.015600,0.000133,  29.188
   269.4,0.001322,0.000809, 28,0.015654,0.000169,  29.189
   269.6,0.001316,0.000806, 28,0.015724,0.000169,  29.186
   269.8,0.001318,0.000807, 28,0.015729,0.000133,  29.188
   270.0,0.001324,0.000805, 28,0.015704,0.000169,  29.186
   270.2,0.001318,0.000802, 28,0.015668,0.000169,  29.189
   270.4,0.001318,0.000806, 28,0.015592,0.000133,  29.184
   270.6,0.001322,0.000806, 28,0.015639,0.000169,  29.186
   270.8,0.001316,0.000804, 28,0.015708,0.000169,  29.182
   271.0,0.001316,0.000799, 28,0.015811,0.000169,  29.179
   271.2,0.001313,0.000798, 28,0.015834,0.000169,  29.183
   271.4,0.001313,0.000800, 28,0.015839,0.000169,  29.180
   271.6,0.001313,0.000802, 28,0.015810,0.000169,  29.183
   271.8,0.001311,0.000802, 28,0.015688,0.000169,  29.183
   272.0,0.001308,0.000800, 28,0.015498,0.000169,  29.176
   272.2,0.001308,0.000802, 28,0.015254,0.000169,  29.183
   272.4,0.001308,0.000805, 28,0.015275,0.000133,  29.184
   272.6,0.001306,0.000807, 28,0.015393,0.000169,  29.184
   272.8,0.001303,0.000807, 28,0.015606,0.000169,  29.178
   273.0,0.001303,0.000810, 28,0.015676,0.000133,  29.185
   273.2,0.001306,0.000808, 28,0.015721,0.000169,  29.180
   273.4,0.001303,0.000808, 28,0.015740,0.000169,  29.185
   273.6,0.001303,0.000808, 28,0.015803,0.000133,  29.184
   273.8,0.001306,0.000804, 28,0.015880,0.000169,  29.184
   274.0,0.001303,0.000804, 28,0.015964,0.000169,  29.186
   274.2,0.001301,0.000804, 28,0.016002,0.000133,  29.183
   274.4,0.001301,0.000802, 28,0.016007,0.000169,  29.184
   274.6,0.001303,0.000799, 28,0.015994,0.000169,  29.183
   274.8,0.001303,0.000799, 28,0.015906,0.000133,  29.182
   275.0,0.001303,0.000793, 28,0.015762,0.000169,  29.178
   275.2,0.001303,0.000792, 28,0.015571,0.000169,  29.181
   275.4,0.001301,0.000795, 28,0.015603,0.000133,  29.180
   275.6,0.001298,0.000796, 28,0.015721,0.000169,  29.180
   275.8,0.001298,0.000794, 28,0.015940,0.000169,  29.181
   276.0,0.001296,0.000798, 28,0.016002,0.000133,  29.181
   276.2,0.001291,0.000798, 28,0.016031,0.000169,  29.183
   276.4,0.001288,0.000798, 28,0.016039,0.000169,  29.183
   276.6,0.001288,0.000796, 28,0.016102,0.000133,  29.185
   276.8,0.001286,0.000796, 28,0.016172,0.000169,  29.184
   277.0,0.001283,0.000790, 28,0.016258,0.000169,  29.185
   277.2,0.001283,0.000790, 28,0.016274,0.000133,  29.185
   277.4,0.001292,0.000795, 28,0.016276,0.000169,  29.182
   277.6,0.001286,0.000789, 28,0.016247,0.000169,  29.182
   277.8,0.001283,0.000788, 28,0.016307,0.000133,  29.179
   278.0,0.001287,0.000788, 28,0.016379,0.000169,  29.177
   278.2,0.001283,0.000791, 28,0.016489,0.000169,  29.179
   278.4,0.001283,0.000788, 28,0.016536,0.000156,  29.178
   278.6,0.001289,0.000782, 28,0.016566,0.000178,  29.181
   278.8,0.001286,0.000782, 28,0.016573,0.000178,  29.179
   279.0,0.001286,0.000781, 28,0.016571,0.000192,  29.181
   279.2,0.001292,0.000774, 28,0.016555,0.000205,  29.176
   279.4,0.001286,0.000778, 28,0.016540,0.000169,  29.180
   279.6,0.001286,0.000782, 28,0.016511,0.000218,  29.182
   279.8,0.001292,0.000779, 28,0.016516,0.000133,  29.184
   280.0,0.001288,0.000779, 28,0.016528,0.000169,  29.183
   280.2,0.001291,0.000781, 28,0.016548,0.000169,  29.181
   280.4,0.001299,0.000781, 28,0.016578,0.000169,  29.179
   280.6,0.001298,0.000782, 28,0.016623,0.000169,  29.179
   280.8,0.001301,0.000777, 28,0.016682,0.000169,  29.177
   281.0,0.001307,0.000775, 28,0.016711,0.000133,  29.179
   281.2,0.001303,0.000777, 28,0.016718,0.000169,  29.182
   281.4,0.001306,0.000775, 28,0.016723,0.000169,  29.182
   281.6,0.001306,0.000776, 28,0.016770,0.000133,  29.180
   281.8,0.001308,0.000779, 28,0.016825,0.000169,  29.183
   282.0,0.001308,0.000779, 28,0.016901,0.000169,  29.177
   282.2,0.001306,0.000780, 28,0.016976,0.000119,  29.174
   282.4,0.001306,0.000782, 28,0.017032,0.000142,  29.178
   282.6,0.001309,0.000779, 28,0.017105,0.000142,  29.176
   282.8,0.001308,0.000776, 28,0.017118,0.000119,  29.181
   283.0,0.001308,0.000774, 28,0.017103,0.000156,  29.182
   283.2,0.001304,0.000772, 28,0.017057,0.000156,  29.180
   283.4,0.001307,0.000779, 28,0.017071,0.000133,  29.175
   283.6,0.001309,0.000781, 28,0.017105,0.000156,  29.174
   283.8,0.001306,0.000779, 28,0.017157,0.000156,  29.176
   284.0,0.001306,0.000782, 28,0.017162,0.000133,  29.178
   284.2,0.001314,0.000782, 28,0.017157,0.000169,  29.176
   284.4,0.001311,0.000782, 28,0.017127,0.000169,  29.174
   284.6,0.001311,0.000785, 28,0.017158,0.000156,  29.182
   284.8,0.001317,0.000787, 28,0.017205,0.000178,  29.181
   285.0,0.001307,0.000784, 28,0.017273,0.000178,  29.182
   285.2,0.001310,0.000788, 28,0.017285,0.000178,  29.181
   285.4,0.001307,0.000793, 28,0.017274,0.000178,  29.184
   285.6,0.001301,0.000791, 28,0.017255,0.000178,  29.176
   285.8,0.001304,0.000791, 28,0.017291,0.000192,  29.179
   286.0,0.001307,0.000793, 28,0.017352,0.000192,  29.181
   286.2,0.001313,0.000795, 28,0.017436,0.000192,  29.182
   286.4,0.001316,0.000795, 28,0.017514,0.000205,  29.175
   286.6,0.001322,0.000792, 28,0.017607,0.000205,  29.177
   286.8,0.001324,0.000789, 28,0.017708,0.000205,  29.178
   287.0,0.001327,0.000792, 28,0.017774,0.000205,  29.183
   287.2,0.001329,0.000795, 28,0.017814,0.000205,  29.184
   287.4,0.001326,0.000792, 28,0.017834,0.000205,  29.182
   287.6,0.001326,0.000794, 28,0.017839,0.000205,  29.179
   287.8,0.001329,0.000794, 28,0.017877,0.000169,  29.177
   288.0,0.001326,0.000798, 28,0.017912,0.000205,  29.180
   288.2,0.001328,0.000800, 28,0.017948,0.000205,  29.180
   288.4,0.001328,0.000796, 28,0.018000,0.000169,  29.182
   288.6,0.001333,0.000803, 28,0.018059,0.000169,  29.182
   288.8,0.001333,0.000803, 28,0.018124,0.000169,  29.180
   289.0,0.001333,0.000804, 28,0.018152,0.000133,  29.176
   289.2,0.001338,0.000804, 28,0.018165,0.000169,  29.182
   289.4,0.001343,0.000805, 28,0.018166,0.000169,  29.180
   289.6,0.001346,0.000806, 28,0.018193,0.000133,  29.175
   289.8,0.001348,0.000805, 28,0.018221,0.000169,  29.182
   290.0,0.001348,0.000803, 28,0.018262,0.000169,  29.180
   290.2,0.001354,0.000809, 28,0.018305,0.000133,  29.179
   290.4,0.001351,0.000811, 28,0.018343,0.000169,  29.182
   290.6,0.001351,0.000814, 28,0.018381,0.000169,  29.177
   290.8,0.001351,0.000826, 28,0.018426,0.000133,  29.178
   291.0,0.001351,0.000831, 28,0.018462,0.000169,  29.181
   291.2,0.001356,0.000833, 28,0.018501,0.000169,  29.181
   291.4,0.001353,0.000829, 28,0.018493,0.000133,  29.179
   291.6,0.001359,0.000827, 28,0.018447,0.000169,  29.180
   291.8,0.001353,0.000829, 28,0.018367,0.000169,  29.182
   292.0,0.001353,0.000824, 28,0.018386,0.000133,  29.179
   292.2,0.001359,0.000817, 28,0.018441,0.000169,  29.179
   292.4,0.001353,0.000819, 28,0.018525,0.000169,  29.180
   292.6,0.001353,0.000820, 28,0.018572,0.000133,  29.177
   292.8,0.001357,0.000818, 28,0.018631,0.000169,  29.175
   293.0,0.001356,0.000819, 28,0.018691,0.000169,  29.181
   293.2,0.001358,0.000821, 28,0.018766,0.000133,  29.179
   293.4,0.001364,0.000823, 28,0.018837,0.000169,  29.177
   293.6,0.001361,0.000826, 28,0.018914,0.000169,  29.178
   293.8,0.001363,0.000823, 28,0.018925,0.000133,  29.181
   294.0,0.001364,0.000822, 28,0.018901,0.000169,  29.180
   294.2,0.001358,0.000821, 28,0.018831,0.000169,  29.181
   294.4,0.001358,0.000821, 28,0.018878,0.000133,  29.185
   294.6,0.001362,0.000821, 28,0.018963,0.000169,  29.183
   294.8,0.001356,0.000818, 28,0.019081,0.000169,  29.187
   295.0,0.001356,0.000821, 28,0.019135,0.000133,  29.184
   295.2,0.001356,0.000823, 28,0.019171,0.000169,  29.185
   295.4,0.001356,0.000820, 28,0.019195,0.000169,  29.189
   295.6,0.001358,0.000818, 28,0.019238,0.000146,  29.182
   295.8,0.001361,0.000814, 28,0.019278,0.000182,  29.188
   296.0,0.001363,0.000810, 28,0.019321,0.000182,  29.185
   296.2,0.001363,0.000818, 28,0.019361,0.000182,  29.188
   296.4,0.001366,0.000818, 28,0.019423,0.000195,  29.191
   296.6,0.001368,0.000815, 28,0.019484,0.000182,  29.190
   296.8,0.001368,0.000819, 28,0.019560,0.000195,  29.194
   297.0,0.001368,0.000817, 28,0.019605,0.000195,  29.193
   297.2,0.001371,0.000819, 28,0.019632,0.000182,  29.189
   297.4,0.001373,0.000818, 28,0.019644,0.000182,  29.193
   297.6,0.001373,0.000818, 28,0.019668,0.000159,  29.197
   297.8,0.001376,0.000820, 28,0.019689,0.000182,  29.196
   298.0,0.001376,0.000820, 28,0.019716,0.000182,  29.200
   298.2,0.001382,0.000820, 28,0.019754,0.000169,  29.196
   298.4,0.001378,0.000815, 28,0.019788,0.000178,  29.197
   298.6,0.001378,0.000820, 28,0.019829,0.000178,  29.197
   298.8,0.001384,0.000820, 28,0.019865,0.000192,  29.196
   299.0,0.001381,0.000820, 28,0.019894,0.000205,  29.196
   299.2,0.001383,0.000818, 28,0.019920,0.000205,  29.201
   299.4,0.001389,0.000820, 28,0.019926,0.000205,  29.198
   299.6,0.001386,0.000820, 28,0.019914,0.000192,  29.197
   299.8,0.001386,0.000818, 28,0.019899,0.000192,  29.202
   300.0,0.001394,0.000822, 28,0.019937,0.000169,  29.201
   300.2,0.001394,0.000820, 28,0.019991,0.000169,  29.197
   300.4,0.001388,0.000820, 28,0.020075,0.000169,  29.197
   300.6,0.001388,0.000827, 28,0.020145,0.000146,  29.201
   300.8,0.001392,0.000827, 28,0.020218,0.000182,  29.200
   301.0,0.001386,0.000824, 28,0.020294,0.000182,  29.203
   301.2,0.001388,0.000829, 28,0.020395,0.000146,  29.200
   301.4,0.001392,0.000829, 28,0.020513,0.000169,  29.194
   301.6,0.001388,0.000830, 28,0.020646,0.000169,  29.194
   301.8,0.001391,0.000826, 28,0.020682,0.000133,  29.193
   302.0,0.001397,0.000824, 28,0.020674,0.000169,  29.195
   302.2,0.001393,0.000821, 28,0.020628,0.000169,  29.194
   302.4,0.001396,0.000823, 28,0.020609,0.000133,  29.195
   302.6,0.001402,0.000821, 28,0.020578,0.000169,  29.193
   302.8,0.001401,0.000819, 28,0.020541,0.000169,  29.194
   303.0,0.001401,0.000827, 28,0.020539,0.000133,  29.191
   303.2,0.001407,0.000831, 28,0.020551,0.000169,  29.193
   303.4,0.001404,0.000829, 28,0.020578,0.000169,  29.191
   303.6,0.001409,0.000830, 28,0.020598,0.000146,  29.191
   303.8,0.001414,0.000832, 28,0.020614,0.000182,  29.194
   304.0,0.001412,0.000834, 28,0.020648,0.000182,  29.190
   304.2,0.001415,0.000835, 28,0.020677,0.000159,  29.193
   304.4,0.001428,0.000837, 28,0.020691,0.000182,  29.192
   304.6,0.001425,0.000837, 28,0.020709,0.000182,  29.187
   304.8,0.001424,0.000841, 28,0.020712,0.000182,  29.189
   305.0,0.001431,0.000843, 28,0.020757,0.000195,  29.187
   305.2,0.001433,0.000843, 28,0.020812,0.000182,  29.186
   305.4,0.001438,0.000841, 28,0.020888,0.000195,  29.188
   305.6,0.001441,0.000843, 28,0.020865,0.000195,  29.185
   305.8,0.001440,0.000840, 28,0.020796,0.000182,  29.181
   306.0,0.001440,0.000844, 28,0.020694,0.000182,  29.183
   306.2,0.001440,0.000846, 28,0.020681,0.000159,  29.184
   306.4,0.001434,0.000846, 28,0.020699,0.000182,  29.177
   306.6,0.001437,0.000848, 28,0.020742,0.000182,  29.182
   306.8,0.001441,0.000849, 28,0.020804,0.000159,  29.179
   307.0,0.001435,0.000846, 28,0.020889,0.000182,  29.183
   307.2,0.001441,0.000846, 28,0.020991,0.000182,  29.181
   307.4,0.001441,0.000849, 28,0.021059,0.000159,  29.178
   307.6,0.001437,0.000848, 28,0.021105,0.000182,  29.179
   307.8,0.001440,0.000843, 28,0.021148,0.000182,  29.180
   308.0,0.001442,0.000850, 28,0.021235,0.000159,  29.180
   308.2,0.001445,0.000851, 28,0.021332,0.000182,  29.182
   308.4,0.001441,0.000847, 28,0.021450,0.000182,  29.179
   308.6,0.001439,0.000851, 28,0.021528,0.000159,  29.182
   308.8,0.001442,0.000848, 28,0.021592,0.000182,  29.177
   309.0,0.001436,0.000846, 28,0.021652,0.000182,  29.182
   309.2,0.001436,0.000848, 28,0.021704,0.000182,  29.177
   309.4,0.001436,0.000846, 28,0.021750,0.000192,  29.184
   309.6,0.001439,0.000846, 28,0.021781,0.000192,  29.181
   309.8,0.001439,0.000848, 28,0.021788,0.000205,  29.188
   310.0,0.001436,0.000849, 28,0.021789,0.000205,  29.182
   310.2,0.001439,0.000849, 28,0.021752,0.000205,  29.182
   310.4,0.001441,0.000849, 28,0.021732,0.000205,  29.184
   310.6,0.001444,0.000854, 28,0.021721,0.000205,  29.187
   310.8,0.001449,0.000852, 28,0.021690,0.000205,  29.184
   311.0,0.001451,0.000846, 28,0.021719,0.000205,  29.190
   311.2,0.001456,0.000849, 28,0.021780,0.000205,  29.190
   311.4,0.001461,0.000853, 28,0.021859,0.000205,  29.187
   311.6,0.001459,0.000855, 28,0.021906,0.000205,  29.191
   311.8,0.001456,0.000853, 28,0.021966,0.000205,  29.190
   312.0,0.001459,0.000857, 28,0.022011,0.000205,  29.193
   312.2,0.001459,0.000864, 28,0.021969,0.000205,  29.193
   312.4,0.001461,0.000864, 28,0.021877,0.000205,  29.194
   312.6,0.001464,0.000861, 28,0.021736,0.000205,  29.193
   312.8,0.001464,0.000865, 28,0.021742,0.000169,  29.194
   313.0,0.001466,0.000862, 28,0.021796,0.000169,  29.194
   313.2,0.001469,0.000860, 28,0.021896,0.000133,  29.187
   313.4,0.001469,0.000862, 28,0.022038,0.000169,  29.192
   313.6,0.001469,0.000857, 28,0.022067,0.000133,  29.190
   313.8,0.001471,0.000858, 28,0.022083,0.000169,  29.193
   314.0,0.001471,0.000864, 28,0.022084,0.000169,  29.194
   314.2,0.001469,0.000861, 28,0.022127,0.000169,  29.194
   314.4,0.001469,0.000861, 28,0.022173,0.000169,  29.192
   314.6,0.001471,0.000861, 28,0.022222,0.000169,  29.197
   314.8,0.001480,0.000861, 28,0.022251,0.000146,  29.197
   315.0,0.001474,0.000859, 28,0.022268,0.000182,  29.195
   315.2,0.001476,0.000866, 28,0.022272,0.000182,  29.194
   315.4,0.001482,0.000869, 28,0.022310,0.000159,  29.194
   315.6,0.001476,0.000865, 28,0.022353,0.000182,  29.198
   315.8,0.001482,0.000867, 28,0.022413,0.000182,  29.201
   316.0,0.001486,0.000874, 28,0.022470,0.000159,  29.199
   316.2,0.001482,0.000874, 28,0.022544,0.000182,  29.201
   316.4,0.001488,0.000873, 28,0.022615,0.000182,  29.197
   316.6,0.001491,0.000871, 28,0.022653,0.000146,  29.196
   316.8,0.001493,0.000871, 28,0.022666,0.000169,  29.199
   317.0,0.001490,0.000869, 28,0.022681,0.000169,  29.201
   317.2,0.001496,0.000867, 28,0.022685,0.000133,  29.200
   317.4,0.001498,0.000871, 28,0.022659,0.000169,  29.197
   317.6,0.001497,0.000869, 28,0.022629,0.000169,  29.204
   317.8,0.001503,0.000870, 28,0.022674,0.000133,  29.205
   318.0,0.001506,0.000876, 28,0.022753,0.000169,  29.201
   318.2,0.001502,0.000878, 28,0.022855,0.000169,  29.204
   318.4,0.001513,0.000877, 28,0.022515,0.000133,  29.203
   318.6,0.001511,0.000877, 28,0.021981,0.000169,  29.204
   318.8,0.001507,0.000878, 28,0.021232,0.000169,  29.203
   319.0,0.001510,0.000884, 28,0.021254,0.000133,  29.200
   319.2,0.001512,0.000881, 28,0.021556,0.000169,  29.200
   319.4,0.001509,0.000877, 28,0.022139,0.000169,  29.203
   319.6,0.001509,0.000880, 28,0.022371,0.000133,  29.202
   319.8,0.001517,0.000882, 28,0.022560,0.000169,  29.204
   320.0,0.001511,0.000882, 28,0.022722,0.000169,  29.202
   320.2,0.001511,0.000883, 28,0.022669,0.000146,  29.200
   320.4,0.001517,0.000889, 28,0.022480,0.000182,  29.203
   320.6,0.001511,0.000891, 28,0.022160,0.000182,  29.207
   320.8,0.001511,0.000893, 28,0.022236,0.000159,  29.201
   321.0,0.001517,0.000888, 28,0.022442,0.000182,  29.204
   321.2,0.001514,0.000889, 28,0.022769,0.000195,  29.206
   321.4,0.001516,0.000893, 28,0.022921,0.000159,  29.204
   321.6,0.001522,0.000889, 28,0.023042,0.000195,  29.204
   321.8,0.001521,0.000888, 28,0.023144,0.000195,  29.201
   322.0,0.001526,0.000894, 28,0.023215,0.000195,  29.203
   322.2,0.001532,0.000898, 28,0.023299,0.000195,  29.206
   322.4,0.001529,0.000899, 28,0.023373,0.000195,  29.197
   322.6,0.001532,0.000896, 28,0.023426,0.000209,  29.203
   322.8,0.001537,0.000896, 28,0.023505,0.000195,  29.202
   323.0,0.001537,0.000899, 28,0.023591,0.000182,  29.202
   323.2,0.001538,0.000898, 28,0.023673,0.000195,  29.200
   323.4,0.001546,0.000896, 28,0.023745,0.000159,  29.201
   323.6,0.001543,0.000893, 28,0.023805,0.000195,  29.202
   323.8,0.001548,0.000892, 28,0.023858,0.000209,  29.201
   324.0,0.001550,0.000895, 28,0.023879,0.000159,  29.204
   324.2,0.001547,0.000897, 28,0.023890,0.000195,  29.201
   324.4,0.001544,0.000901, 28,0.023876,0.000209,  29.205
   324.6,0.001542,0.000899, 28,0.023922,0.000159,  29.205
   324.8,0.001538,0.000905, 28,0.023977,0.000195,  29.204
   325.0,0.001538,0.000902, 28,0.024048,0.000209,  29.208
   325.2,0.001541,0.000898, 28,0.024063,0.000159,  29.205
   325.4,0.001541,0.000895, 28,0.024052,0.000195,  29.203
   325.6,0.001537,0.000893, 28,0.024027,0.000195,  29.205
   325.8,0.001543,0.000892, 28,0.024020,0.000159,  29.206
   326.0,0.001543,0.000890, 28,0.024030,0.000182,  29.209
   326.2,0.001540,0.000888, 28,0.024028,0.000182,  29.208
   326.4,0.001540,0.000889, 28,0.024019,0.000159,  29.206
   326.6,0.001537,0.000891, 28,0.024005,0.000182,  29.210
   326.8,0.001534,0.000888, 28,0.023977,0.000182,  29.206
   327.0,0.001534,0.000896, 28,0.024025,0.000159,  29.206
   327.2,0.001540,0.000898, 28,0.024104,0.000182,  29.207
   327.4,0.001535,0.000892, 28,0.024210,0.000182,  29.209
   327.6,0.001539,0.000890, 28,0.024241,0.000159,  29.206
   327.8,0.001553,0.000892, 28,0.024247,0.000182,  29.208
   328.0,0.001556,0.000887, 28,0.024228,0.000182,  29.211
   328.2,0.001549,0.000893, 28,0.024259,0.000182,  29.209
   328.4,0.001559,0.000893, 28,0.024303,0.000192,  29.208
   328.6,0.001560,0.000892, 28,0.024353,0.000192,  29.210
   328.8,0.001563,0.000898, 28,0.024410,0.000169,  29.207
   329.0,0.001563,0.000900, 28,0.024475,0.000169,  29.210
   329.2,0.001559,0.000896, 28,0.024541,0.000169,  29.207
   329.4,0.001568,0.000898, 28,0.024546,0.000133,  29.209
   329.6,0.001565,0.000898, 28,0.024526,0.000169,  29.208
   329.8,0.001559,0.000896, 28,0.024464,0.000169,  29.207
   330.0,0.001565,0.000898, 28,0.024470,0.000156,  29.205
   330.2,0.001565,0.000899, 28,0.024491,0.000178,  29.209
   330.4,0.001559,0.000896, 28,0.024525,0.000215,  29.207
   330.6,0.001562,0.000899, 28,0.024572,0.000178,  29.207
   330.8,0.001562,0.000897, 28,0.024627,0.000192,  29.207
   331.0,0.001559,0.000896, 28,0.024692,0.000192,  29.204
   331.2,0.001561,0.000898, 28,0.024771,0.000205,  29.204
   331.4,0.001564,0.000898, 28,0.024774,0.000205,  29.205
   331.6,0.001563,0.000897, 28,0.024746,0.000192,  29.203
   331.8,0.001569,0.000905, 28,0.024695,0.000192,  29.198
   332.0,0.001571,0.000907, 28,0.024698,0.000205,  29.200
   332.2,0.001568,0.000907, 28,0.024696,0.000205,  29.201
   332.4,0.001576,0.000907, 28,0.024701,0.000205,  29.196
   332.6,0.001574,0.000905, 28,0.024706,0.000205,  29.200
   332.8,0.001568,0.000905, 28,0.024709,0.000205,  29.196
   333.0,0.001570,0.000907, 28,0.024703,0.000205,  29.191
   333.2,0.001568,0.000909, 28,0.024753,0.000169,  29.196
   333.4,0.001562,0.000912, 28,0.024841,0.000169,  29.196
   333.6,0.001562,0.000912, 28,0.024948,0.000169,  29.195
   333.8,0.001565,0.000914, 28,0.024972,0.000133,  29.189
   334.0,0.001565,0.000914, 28,0.024970,0.000169,  29.187
   334.2,0.001562,0.000908, 28,0.024954,0.000169,  29.195
   334.4,0.001564,0.000911, 28,0.024986,0.000133,  29.188
   334.6,0.001573,0.000913, 28,0.025017,0.000169,  29.189
   334.8,0.001567,0.000906, 28,0.025065,0.000169,  29.188
   335.0,0.001567,0.000910, 28,0.025098,0.000133,  29.188
   335.2,0.001570,0.000907, 28,0.025122,0.000169,  29.185
   335.4,0.001564,0.000907, 28,0.025151,0.000169,  29.184
   335.6,0.001567,0.000907, 28,0.025175,0.000133,  29.189
   335.8,0.001573,0.000907, 28,0.025202,0.000169,  29.188
   336.0,0.001569,0.000910, 28,0.025216,0.000169,  29.189
   336.2,0.001572,0.000909, 28,0.025224,0.000133,  29.190
   336.4,0.001580,0.000907, 28,0.025227,0.000169,  29.189
   336.6,0.001577,0.000907, 28,0.025223,0.000169,  29.190
   336.8,0.001574,0.000905, 28,0.025237,0.000133,  29.188
   337.0,0.001578,0.000903, 28,0.025254,0.000169,  29.187
   337.2,0.001574,0.000907, 28,0.025283,0.000169,  29.186
   337.4,0.001574,0.000912, 28,0.025321,0.000146,  29.181
   337.6,0.001578,0.000913, 28,0.025364,0.000182,  29.182
   337.8,0.001574,0.000910, 28,0.025426,0.000182,  29.187
   338.0,0.001574,0.000906, 28,0.025424,0.000146,  29.185
   338.2,0.001578,0.000907, 28,0.025389,0.000169,  29.190
   338.4,0.001574,0.000906, 28,0.025337,0.000169,  29.182
   338.6,0.001574,0.000906, 28,0.025318,0.000133,  29.185
   338.8,0.001580,0.000907, 28,0.025294,0.000169,  29.185
   339.0,0.001577,0.000910, 28,0.025288,0.000169,  29.184
   339.2,0.001577,0.000913, 28,0.025277,0.000169,  29.185
   339.4,0.001583,0.000913, 28,0.025282,0.000169,  29.184
   339.6,0.001582,0.000917, 28,0.025282,0.000169,  29.186
   339.8,0.001590,0.000914, 28,0.025302,0.000169,  29.187
   340.0,0.001596,0.000913, 28,0.025213,0.000169,  29.187
   340.2,0.001593,0.000913, 28,0.025082,0.000156,  29.190
   340.4,0.001601,0.000912, 28,0.024904,0.000156,  29.190
   340.6,0.001596,0.000912, 28,0.024944,0.000133,  29.188
   340.8,0.001593,0.000915, 28,0.025058,0.000169,  29.186
   341.0,0.001595,0.000920, 28,0.025271,0.000169,  29.187
   341.2,0.001598,0.000918, 28,0.025236,0.000133,  29.187
   341.4,0.001594,0.000922, 28,0.025120,0.000169,  29.188
   341.6,0.001592,0.000919, 28,0.024913,0.000169,  29.191
   341.8,0.001598,0.000919, 28,0.024942,0.000133,  29.190
   342.0,0.001592,0.000919, 28,0.025038,0.000169,  29.192
   342.2,0.001592,0.000919, 28,0.025205,0.000169,  29.187
   342.4,0.001595,0.000916, 28,0.025310,0.000133,  29.194
   342.6,0.001589,0.000916, 28,0.025408,0.000169,  29.195
   342.8,0.001592,0.000917, 28,0.025518,0.000169,  29.190
   343.0,0.001595,0.000914, 28,0.025411,0.000133,  29.191
   343.2,0.001595,0.000912, 28,0.025197,0.000169,  29.192
   343.4,0.001589,0.000910, 28,0.024863,0.000169,  29.193
   343.6,0.001589,0.000911, 28,0.024880,0.000133,  29.200
   343.8,0.001595,0.000910, 28,0.025001,0.000169,  29.192
   344.0,0.001592,0.000912, 28,0.025242,0.000169,  29.191
   344.2,0.001589,0.000918, 28,0.025316,0.000133,  29.194
   344.4,0.001595,0.000916, 28,0.025371,0.000169,  29.199
   344.6,0.001592,0.000916, 28,0.025398,0.000169,  29.198
   344.8,0.001594,0.000916, 28,0.025481,0.000133,  29.196
   345.0,0.001600,0.000919, 28,0.025579,0.000169,  29.200
   345.2,0.001597,0.000919, 28,0.025706,0.000169,  29.199
   345.4,0.001594,0.000919, 28,0.025737,0.000133,  29.202
   345.6,0.001598,0.000919, 28,0.025719,0.000169,  29.207
   345.8,0.001594,0.000918, 28,0.025667,0.000169,  29.206
   346.0,0.001594,0.000918, 28,0.025535,0.000133,  29.205
   346.2,0.001603,0.000916, 28,0.025345,0.000169,  29.206
   346.4,0.001599,0.000918, 28,0.025085,0.000169,  29.205
   346.6,0.001599,0.000925, 28,0.025142,0.000133,  29.210
   346.8,0.001605,0.000923, 28,0.025323,0.000156,  29.210
   347.0,0.001602,0.000927, 28,0.025619,0.000156,  29.212
   347.2,0.001602,0.000929, 28,0.025722,0.000133,  29.211
   347.4,0.001605,0.000927, 28,0.025770,0.000156,  29.213
   347.6,0.001602,0.000929, 28,0.025777,0.000156,  29.217
   347.8,0.001602,0.000935, 28,0.025741,0.000169,  29.217
   348.0,0.001605,0.000929, 28,0.025765,0.000169,  29.218
   348.2,0.001602,0.000927, 28,0.025795,0.000169,  29.219
   348.4,0.001602,0.000930, 28,0.025814,0.000169,  29.219
   348.6,0.001608,0.000928, 28,0.025874,0.000169,  29.220
   348.8,0.001604,0.000929, 28,0.025957,0.000169,  29.222
   349.0,0.001604,0.000932, 28,0.026055,0.000169,  29.221
   349.2,0.001610,0.000933, 28,0.026088,0.000133,  29.220
   349.4,0.001607,0.000931, 28,0.026096,0.000169,  29.222
   349.6,0.001609,0.000929, 28,0.026089,0.000169,  29.225
   349.8,0.001615,0.000925, 28,0.026128,0.000146,  29.223
   350.0,0.001609,0.000925, 28,0.026161,0.000182,  29.223
   350.2,0.001609,0.000923, 28,0.026209,0.000182,  29.228
   350.4,0.001615,0.000926, 28,0.026250,0.000146,  29.227
   350.6,0.001609,0.000921, 28,0.026288,0.000169,  29.232
   350.8,0.001612,0.000927, 28,0.026334,0.000169,  29.232
   351.0,0.001618,0.000928, 28,0.026360,0.000133,  29.234
   351.2,0.001612,0.000931, 28,0.026377,0.000169,  29.236
   351.4,0.001614,0.000932, 28,0.026386,0.000169,  29.238
   351.6,0.001618,0.000935, 28,0.026212,0.000133,  29.234
   351.8,0.001614,0.000935, 28,0.025938,0.000169,  29.234
   352.0,0.001619,0.000932, 28,0.025552,0.000169,  29.233
   352.2,0.001628,0.000930, 28,0.025552,0.000133,  29.234
   352.4,0.001630,0.000930, 28,0.025696,0.000169,  29.236
   352.6,0.001629,0.000933, 28,0.025965,0.000169,  29.238
   352.8,0.001627,0.000929, 28,0.025965,0.000133,  29.238
   353.0,0.001633,0.000930, 28,0.025906,0.000169,  29.230
   353.2,0.001627,0.000932, 28,0.025773,0.000169,  29.237
   353.4,0.001629,0.000932, 28,0.025818,0.000133,  29.238
   353.6,0.001633,0.000935, 28,0.025902,0.000169,  29.237
   353.8,0.001627,0.000937, 28,0.026051,0.000169,  29.236
   354.0,0.001629,0.000942, 28,0.026149,0.000146,  29.235
   354.2,0.001635,0.000941, 28,0.026246,0.000182,  29.236
   354.4,0.001629,0.000940, 28,0.026345,0.000182,  29.232
   354.6,0.001632,0.000944, 28,0.026359,0.000146,  29.231
   354.8,0.001635,0.000943, 28,0.026331,0.000169,  29.229
   355.0,0.001629,0.000940, 28,0.026253,0.000169,  29.227
   355.2,0.001632,0.000944, 28,0.026145,0.000133,  29.221
   355.4,0.001638,0.000941, 28,0.026005,0.000169,  29.218
   355.6,0.001632,0.000940, 28,0.025826,0.000169,  29.217
   355.8,0.001632,0.000944, 28,0.025840,0.000133,  29.215
   356.0,0.001629,0.000939, 28,0.025929,0.000169,  29.216
   356.2,0.001629,0.000940, 28,0.026100,0.000169,  29.211
   356.4,0.001629,0.000944, 28,0.026182,0.000156,  29.213
   356.6,0.001633,0.000942, 28,0.026256,0.000178,  29.209
   356.8,0.001627,0.000945, 28,0.026330,0.000215,  29.210
   357.0,0.001629,0.000946, 28,0.026394,0.000178,  29.206
   357.2,0.001635,0.000946, 28,0.026285,0.000192,  29.210
   357.4,0.001629,0.000944, 28,0.026089,0.000192,  29.208
   357.6,0.001634,0.000946, 28,0.025817,0.000205,  29.208
   357.8,0.001640,0.000948, 28,0.025758,0.000205,  29.211
   358.0,0.001637,0.000947, 28,0.025768,0.000205,  29.205
   358.2,0.001637,0.000945, 28,0.025843,0.000205,  29.210
   358.4,0.001643,0.000945, 28,0.025900,0.000205,  29.207
   358.6,0.001639,0.000947, 28,0.025989,0.000205,  29.204
   358.8,0.001639,0.000945, 28,0.026091,0.000205,  29.204
   359.0,0.001645,0.000945, 28,0.026174,0.000205,  29.208
   359.2,0.001639,0.000945, 28,0.026258,0.000192,  29.209
   359.4,0.001645,0.000943, 28,0.026339,0.000192,  29.207
   359.6,0.001652,0.000944, 28,0.026413,0.000205,  29.206
   359.8,0.001649,0.000946, 28,0.026487,0.000192,  29.206
   360.0,0.001651,0.000941, 28,0.026547,0.000192,  29.203
   360.2,0.001660,0.000945, 28,0.026590,0.000205,  29.204
   360.4,0.001662,0.000946, 28,0.026635,0.000192,  29.208
   360.6,0.001662,0.000942, 28,0.026652,0.000192,  29.205
   360.8,0.001659,0.000945, 28,0.026669,0.000205,  29.204
   361.0,0.001662,0.000945, 28,0.026683,0.000192,  29.203
   361.2,0.001656,0.000943, 28,0.026687,0.000192,  29.205
   361.4,0.001656,0.000948, 28,0.026696,0.000205,  29.205
   361.6,0.001662,0.000949, 28,0.026718,0.000192,  29.205
   361.8,0.001659,0.000947, 28,0.026732,0.000192,  29.203
   362.0,0.001659,0.000949, 28,0.026431,0.000205,  29.204
   362.2,0.001662,0.000948, 28,0.025972,0.000205,  29.204
   362.4,0.001659,0.000952, 28,0.025352,0.000205,  29.204
   362.6,0.001659,0.000950, 28,0.025328,0.000205,  29.202
   362.8,0.001656,0.000950, 28,0.025509,0.000205,  29.207
   363.0,0.001653,0.000950, 28,0.025917,0.000205,  29.206
   363.2,0.001656,0.000950, 28,0.026044,0.000205,  29.207
   363.4,0.001654,0.000951, 28,0.026131,0.000205,  29.203
   363.6,0.001650,0.000951, 28,0.026176,0.000205,  29.204
   363.8,0.001651,0.000954, 28,0.026284,0.000205,  29.206
   364.0,0.001649,0.000956, 28,0.026401,0.000205,  29.204
   364.2,0.001645,0.000955, 28,0.026517,0.000205,  29.204
   364.4,0.001643,0.000953, 28,0.026560,0.000205,  29.208
   364.6,0.001643,0.000951, 28,0.026570,0.000205,  29.207
   364.8,0.001637,0.000945, 28,0.026549,0.000205,  29.201
   365.0,0.001637,0.000947, 28,0.026573,0.000205,  29.201
   365.2,0.001640,0.000949, 28,0.026597,0.000205,  29.205
   365.4,0.001634,0.000948, 28,0.026618,0.000205,  29.208
   365.6,0.001638,0.000947, 28,0.026649,0.000205,  29.207
   365.8,0.001639,0.000949, 28,0.026682,0.000169,  29.205
   366.0,0.001633,0.000951, 28,0.026703,0.000205,  29.208
   366.2,0.001639,0.000950, 28,0.026737,0.000205,  29.208
   366.4,0.001639,0.000951, 28,0.026715,0.000205,  29.205
   366.6,0.001633,0.000949, 28,0.026672,0.000205,  29.205
   366.8,0.001635,0.000948, 28,0.026591,0.000205,  29.201
   367.0,0.001635,0.000949, 28,0.026600,0.000205,  29.199
   367.2,0.001629,0.000946, 28,0.026633,0.000205,  29.205
   367.4,0.001632,0.000951, 28,0.026686,0.000205,  29.203
   367.6,0.001635,0.000947, 28,0.026671,0.000205,  29.200
   367.8,0.001629,0.000941, 28,0.026628,0.000205,  29.200
   368.0,0.001629,0.000943, 28,0.026547,0.000205,  29.199
   368.2,0.001633,0.000943, 28,0.026563,0.000205,  29.203
   368.4,0.001627,0.000944, 28,0.026604,0.000205,  29.203
   368.6,0.001627,0.000944, 28,0.026664,0.000205,  29.198
   368.8,0.001633,0.000945, 28,0.026642,0.000182,  29.194
   369.0,0.001633,0.000947, 28,0.026604,0.000182,  29.195
   369.2,0.001627,0.000945, 28,0.026543,0.000182,  29.201
   369.4,0.001627,0.000944, 28,0.026521,0.000146,  29.196
   369.6,0.001633,0.000937, 28,0.026519,0.000169,  29.198
   369.8,0.001629,0.000939, 28,0.026528,0.000169,  29.198
   370.0,0.001629,0.000941, 28,0.026487,0.000133,  29.196
   370.2,0.001635,0.000938, 28,0.026420,0.000156,  29.197
   370.4,0.001627,0.000936, 28,0.026342,0.000156,  29.195
   370.6,0.001633,0.000936, 28,0.026346,0.000133,  29.195
   370.8,0.001636,0.000935, 28,0.026391,0.000156,  29.196
   371.0,0.001631,0.000939, 28,0.026477,0.000156,  29.196
   371.2,0.001636,0.000937, 28,0.026400,0.000119,  29.194
   371.4,0.001640,0.000936, 28,0.026261,0.000142,  29.197
   371.6,0.001637,0.000938, 28,0.026058,0.000142,  29.196
   371.8,0.001633,0.000934, 28,0.026053,0.000119,  29.198
   372.0,0.001632,0.000930, 28,0.026117,0.000156,  29.195
   372.2,0.001629,0.000932, 28,0.026246,0.000156,  29.192
   372.4,0.001629,0.000931, 28,0.026299,0.000133,  29.187
   372.6,0.001635,0.000928, 28,0.026349,0.000156,  29.191
   372.8,0.001631,0.000934, 28,0.026399,0.000156,  29.189
   373.0,0.001634,0.000937, 28,0.026451,0.000133,  29.188
   373.2,0.001640,0.000936, 28,0.026492,0.000156,  29.187
   373.4,0.001639,0.000941, 28,0.026532,0.000156,  29.183
   373.6,0.001639,0.000942, 28,0.026540,0.000156,  29.185
   373.8,0.001639,0.000945, 28,0.026525,0.000178,  29.185
   374.0,0.001635,0.000947, 28,0.026497,0.000178,  29.187
   374.2,0.001635,0.000943, 28,0.026439,0.000178,  29.184
   374.4,0.001633,0.000945, 28,0.026408,0.000178,  29.186
   374.6,0.001624,0.000946, 28,0.026387,0.000178,  29.186
   374.8,0.001628,0.000949, 28,0.026354,0.000192,  29.179
   375.0,0.001631,0.000942, 28,0.026354,0.000156,  29.185
   375.2,0.001625,0.000943, 28,0.026358,0.000192,  29.185
   375.4,0.001631,0.000944, 28,0.026370,0.000205,  29.186
   375.6,0.001636,0.000944, 28,0.026078,0.000205,  29.186
   375.8,0.001630,0.000942, 28,0.025636,0.000192,  29.186
   376.0,0.001636,0.000943, 28,0.025033,0.000192,  29.185
   376.2,0.001636,0.000945, 28,0.024936,0.000169,  29.183
   376.4,0.001630,0.000945, 28,0.024995,0.000169,  29.184
   376.6,0.001636,0.000941, 28,0.025236,0.000169,  29.182
   376.8,0.001636,0.000937, 28,0.025376,0.000133,  29.180
   377.0,0.001633,0.000937, 28,0.025535,0.000169,  29.184
   377.2,0.001633,0.000934, 28,0.025740,0.000169,  29.180
   377.4,0.001633,0.000938, 28,0.025857,0.000133,  29.181
   377.6,0.001627,0.000940, 28,0.025942,0.000169,  29.185
   377.8,0.001627,0.000938, 28,0.026014,0.000169,  29.182
   378.0,0.001630,0.000942, 28,0.026031,0.000133,  29.179
   378.2,0.001630,0.000942, 28,0.026005,0.000169,  29.185
   378.4,0.001622,0.000940, 28,0.025951,0.000169,  29.182
   378.6,0.001624,0.000938, 28,0.025967,0.000133,  29.186
   378.8,0.001630,0.000938, 28,0.025991,0.000169,  29.180
   379.0,0.001624,0.000935, 28,0.026027,0.000169,  29.183
   379.2,0.001622,0.000940, 28,0.026055,0.000133,  29.183
   379.4,0.001628,0.000939, 28,0.026103,0.000169,  29.184
   379.6,0.001627,0.000942, 28,0.026143,0.000169,  29.184
   379.8,0.001627,0.000942, 28,0.026162,0.000133,  29.185
   380.0,0.001633,0.000940, 28,0.026186,0.000169,  29.186
   380.2,0.001627,0.000942, 28,0.026188,0.000169,  29.186
   380.4,0.001627,0.000943, 28,0.026200,0.000133,  29.186
   380.6,0.001628,0.000944, 28,0.026216,0.000169,  29.187
   380.8,0.001622,0.000940, 28,0.026221,0.000169,  29.189
   381.0,0.001622,0.000940, 28,0.026213,0.000133,  29.190
   381.2,0.001628,0.000937, 28,0.026184,0.000169,  29.188
   381.4,0.001624,0.000941, 28,0.026145,0.000169,  29.187
   381.6,0.001622,0.000937, 28,0.026162,0.000133,  29.189
   381.8,0.001623,0.000933, 28,0.026198,0.000169,  29.189
   382.0,0.001619,0.000938, 28,0.026237,0.000169,  29.187
   382.2,0.001619,0.000937, 28,0.026241,0.000146,  29.190
   382.4,0.001623,0.000937, 28,0.026244,0.000182,  29.191
   382.6,0.001617,0.000937, 28,0.026227,0.000182,  29.191
   382.8,0.001620,0.000936, 28,0.026203,0.000182,  29.190
   383.0,0.001621,0.000938, 28,0.026162,0.000192,  29.190
   383.2,0.001615,0.000938, 28,0.026114,0.000228,  29.193
   383.4,0.001621,0.000936, 28,0.026048,0.000205,  29.186
   383.6,0.001621,0.000938, 28,0.026026,0.000205,  29.191
   383.8,0.001615,0.000938, 28,0.026024,0.000205,  29.193
   384.0,0.001615,0.000942, 28,0.026024,0.000205,  29.192
   384.2,0.001613,0.000942, 28,0.025940,0.000205,  29.191
   384.4,0.001607,0.000938, 28,0.025816,0.000205,  29.195
   384.6,0.001609,0.000936, 28,0.025657,0.000205,  29.197
   384.8,0.001615,0.000936, 28,0.025626,0.000205,  29.190
   385.0,0.001609,0.000938, 28,0.025652,0.000205,  29.193
   385.2,0.001609,0.000938, 28,0.025726,0.000205,  29.187
   385.4,0.001613,0.000938, 28,0.025747,0.000205,  29.192
   385.6,0.001604,0.000937, 28,0.025767,0.000205,  29.193
   385.8,0.001604,0.000935, 28,0.025786,0.000205,  29.193
   386.0,0.001608,0.000935, 28,0.025805,0.000205,  29.191
   386.2,0.001599,0.000934, 28,0.025824,0.000192,  29.198
   386.4,0.001599,0.000936, 28,0.025842,0.000192,  29.195
   386.6,0.001608,0.000939, 28,0.025809,0.000205,  29.195
   386.8,0.001602,0.000938, 28,0.025735,0.000192,  29.196
   387.0,0.001599,0.000934, 28,0.025628,0.000192,  29.196
   387.2,0.001600,0.000934, 28,0.025599,0.000205,  29.195
   387.4,0.001600,0.000937, 28,0.025601,0.000192,  29.195
   387.6,0.001592,0.000935, 28,0.025625,0.000192,  29.196
   387.8,0.001592,0.000932, 28,0.025474,0.000205,  29.194
   388.0,0.001598,0.000936, 28,0.025259,0.000192,  29.191
   388.2,0.001594,0.000933, 28,0.024975,0.000192,  29.194
   388.4,0.001592,0.000927, 28,0.024913,0.000205,  29.197
   388.6,0.001595,0.000927, 28,0.024939,0.000192,  29.196
   388.8,0.001589,0.000923, 28,0.025044,0.000192,  29.192
   389.0,0.001595,0.000919, 28,0.025120,0.000205,  29.194
   389.2,0.001596,0.000917, 28,0.025221,0.000192,  29.194
   389.4,0.001590,0.000918, 28,0.025333,0.000192,  29.194
   389.6,0.001599,0.000920, 28,0.025280,0.000205,  29.193
   389.8,0.001596,0.000917, 28,0.025153,0.000205,  29.190
   390.0,0.001590,0.000914, 28,0.024961,0.000205,  29.190
   390.2,0.001590,0.000914, 28,0.024956,0.000205,  29.190
   390.4,0.001588,0.000916, 28,0.025007,0.000205,  29.195
   390.6,0.001582,0.000914, 28,0.025117,0.000205,  29.194
   390.8,0.001584,0.000917, 28,0.025119,0.000205,  29.189
   391.0,0.001590,0.000915, 28,0.025102,0.000205,  29.188
   391.2,0.001584,0.000914, 28,0.025052,0.000205,  29.192
   391.4,0.001587,0.000916, 28,0.025061,0.000205,  29.186
   391.6,0.001590,0.000916, 28,0.025080,0.000205,  29.190
   391.8,0.001582,0.000912, 28,0.025110,0.000205,  29.190
   392.0,0.001588,0.000915, 28,0.025155,0.000205,  29.187
   392.2,0.001589,0.000916, 28,0.024931,0.000169,  29.191
   392.4,0.001583,0.000912, 28,0.024594,0.000205,  29.182
   392.6,0.001583,0.000918, 28,0.024164,0.000218,  29.182
   392.8,0.001583,0.000920, 28,0.024240,0.000218,  29.186
   393.0,0.001580,0.000918, 28,0.024505,0.000218,  29.186
   393.2,0.001585,0.000923, 28,0.024984,0.000218,  29.183
   393.4,0.001596,0.000923, 28,0.025131,0.000218,  29.183
   393.6,0.001598,0.000920, 28,0.025207,0.000205,  29.182
   393.8,0.001586,0.000922, 28,0.025216,0.000205,  29.184
   394.0,0.001589,0.000918, 28,0.025235,0.000205,  29.181
   394.2,0.001589,0.000915, 28,0.025220,0.000205,  29.181
   394.4,0.001583,0.000917, 28,0.025182,0.000205,  29.176
   394.6,0.001586,0.000913, 28,0.025188,0.000205,  29.180
   394.8,0.001584,0.000911, 28,0.025214,0.000205,  29.178
   395.0,0.001579,0.000917, 28,0.025247,0.000205,  29.177
   395.2,0.001582,0.000918, 28,0.025261,0.000169,  29.176
   395.4,0.001579,0.000914, 28,0.025267,0.000169,  29.175
   395.6,0.001579,0.000912, 28,0.025284,0.000169,  29.175
   395.8,0.001573,0.000909, 28,0.025255,0.000133,  29.173
   396.0,0.001573,0.000903, 28,0.025202,0.000169,  29.176
   396.2,0.001569,0.000905, 28,0.025135,0.000169,  29.172
   396.4,0.001569,0.000907, 28,0.025106,0.000133,  29.168
   396.6,0.001569,0.000906, 28,0.025084,0.000169,  29.174
   396.8,0.001564,0.000906, 28,0.025070,0.000169,  29.173
   397.0,0.001564,0.000909, 28,0.025019,0.000133,  29.169
   397.2,0.001567,0.000908, 28,0.024971,0.000156,  29.167
   397.4,0.001564,0.000900, 28,0.024912,0.000156,  29.168
   397.6,0.001561,0.000902, 28,0.024901,0.000133,  29.166
   397.8,0.001564,0.000904, 28,0.024908,0.000156,  29.169
   398.0,0.001561,0.000901, 28,0.024943,0.000156,  29.168
   398.2,0.001559,0.000899, 28,0.024879,0.000133,  29.167
   398.4,0.001559,0.000901, 28,0.024766,0.000156,  29.169
   398.6,0.001553,0.000902, 28,0.024624,0.000156,  29.167
   398.8,0.001556,0.000899, 28,0.024600,0.000133,  29.169
   399.0,0.001551,0.000896, 28,0.024607,0.000169,  29.170
   399.2,0.001542,0.000896, 28,0.024653,0.000169,  29.168
   399.4,0.001548,0.000898, 28,0.024679,0.000133,  29.167
   399.6,0.001543,0.000891, 28,0.024707,0.000169,  29.166
   399.8,0.001537,0.000891, 28,0.024737,0.000169,  29.162
   400.0,0.001537,0.000893, 28,0.024725,0.000133,  29.162
   400.2,0.001540,0.000895, 28,0.024692,0.000169,  29.160
   400.4,0.001534,0.000891, 28,0.024642,0.000169,  29.168
   400.6,0.001532,0.000894, 28,0.024563,0.000133,  29.168
   400.8,0.001535,0.000897, 28,0.024465,0.000169,  29.168
   401.0,0.001532,0.000895, 28,0.024332,0.000169,  29.168
   401.2,0.001529,0.000890, 28,0.024187,0.000169,  29.166
   401.4,0.001535,0.000886, 28,0.024198,0.000169,  29.166
   401.6,0.001532,0.000886, 28,0.024272,0.000169,  29.160
   401.8,0.001526,0.000888, 28,0.024382,0.000169,  29.156
   402.0,0.001530,0.000887, 28,0.024385,0.000169,  29.161
   402.2,0.001524,0.000885, 28,0.024353,0.000169,  29.164
   402.4,0.001521,0.000887, 28,0.024287,0.000169,  29.165
   402.6,0.001525,0.000887, 28,0.024258,0.000146,  29.165
   402.8,0.001519,0.000881, 28,0.024229,0.000182,  29.164
   403.0,0.001519,0.000882, 28,0.024212,0.000182,  29.163
   403.2,0.001522,0.000884, 28,0.024209,0.000146,  29.166
   403.4,0.001514,0.000878, 28,0.024223,0.000169,  29.166
   403.6,0.001514,0.000882, 28,0.024251,0.000169,  29.161
   403.8,0.001517,0.000885, 28,0.024131,0.000133,  29.160
   404.0,0.001509,0.000879, 28,0.023928,0.000156,  29.161
   404.2,0.001506,0.000879, 28,0.023677,0.000156,  29.160
   404.4,0.001510,0.000880, 28,0.023672,0.000133,  29.158
   404.6,0.001506,0.000879, 28,0.023737,0.000156,  29.157
   404.8,0.001504,0.000877, 28,0.023910,0.000156,  29.160
   405.0,0.001507,0.000876, 28,0.023760,0.000133,  29.160
   405.2,0.001507,0.000878, 28,0.023488,0.000156,  29.157
   405.4,0.001506,0.000879, 28,0.023107,0.000156,  29.158
   405.6,0.001504,0.000871, 28,0.023095,0.000133,  29.158
   405.8,0.001512,0.000867, 28,0.023212,0.000156,  29.157
   406.0,0.001506,0.000869, 28,0.023456,0.000156,  29.157
   406.2,0.001506,0.000871, 28,0.023508,0.000133,  29.163
   406.4,0.001510,0.000870, 28,0.023519,0.000156,  29.166
   406.6,0.001504,0.000874, 28,0.023510,0.000156,  29.166
   406.8,0.001504,0.000876, 28,0.023529,0.000133,  29.167
   407.0,0.001505,0.000879, 28,0.023542,0.000156,  29.164
   407.2,0.001499,0.000883, 28,0.023561,0.000156,  29.159
   407.4,0.001502,0.000883, 28,0.023603,0.000133,  29.160
   407.6,0.001503,0.000880, 28,0.023648,0.000156,  29.155
   407.8,0.001495,0.000876, 28,0.023694,0.000156,  29.156
   408.0,0.001501,0.000870, 28,0.023617,0.000133,  29.162
   408.2,0.001504,0.000868, 28,0.023467,0.000156,  29.162
   408.4,0.001501,0.000868, 28,0.023264,0.000156,  29.159
   408.6,0.001501,0.000873, 28,0.023079,0.000133,  29.159
   408.8,0.001503,0.000875, 28,0.022856,0.000156,  29.162
   409.0,0.001497,0.000873, 28,0.022614,0.000156,  29.162
   409.2,0.001501,0.000873, 28,0.022626,0.000119,  29.163
   409.4,0.001496,0.000875, 28,0.022748,0.000142,  29.163
   409.6,0.001490,0.000871, 28,0.022972,0.000142,  29.165
   409.8,0.001493,0.000871, 28,0.023057,0.000106,  29.160
   410.0,0.001496,0.000873, 28,0.023118,0.000142,  29.165
   410.2,0.001492,0.000870, 28,0.023167,0.000142,  29.164
   410.4,0.001496,0.000869, 28,0.023186,0.000156,  29.165
   410.6,0.001493,0.000868, 28,0.023107,0.000156,  29.164
   410.8,0.001490,0.000870, 28,0.022960,0.000156,  29.167
   411.0,0.001493,0.000866, 28,0.022770,0.000169,  29.167
   411.2,0.001491,0.000861, 28,0.022765,0.000169,  29.167
   411.4,0.001485,0.000862, 28,0.022823,0.000156,  29.166
   411.6,0.001485,0.000861, 28,0.022953,0.000156,  29.172
   411.8,0.001482,0.000860, 28,0.022972,0.000133,  29.172
   412.0,0.001476,0.000858, 28,0.022967,0.000156,  29.175
   412.2,0.001474,0.000864, 28,0.022936,0.000156,  29.175
   412.4,0.001475,0.000867, 28,0.022918,0.000133,  29.176
   412.6,0.001466,0.000865, 28,0.022913,0.000156,  29.174
   412.8,0.001466,0.000860, 28,0.022906,0.000156,  29.175
   413.0,0.001470,0.000861, 28,0.022926,0.000133,  29.179
   413.2,0.001464,0.000860, 28,0.022958,0.000156,  29.176
   413.4,0.001461,0.000858, 28,0.023030,0.000156,  29.173
   413.6,0.001465,0.000859, 28,0.023024,0.000133,  29.177
   413.8,0.001459,0.000855, 28,0.022981,0.000156,  29.180
   414.0,0.001459,0.000855, 28,0.022924,0.000156,  29.178
   414.2,0.001460,0.000854, 28,0.022902,0.000133,  29.175
   414.4,0.001460,0.000854, 28,0.022883,0.000156,  29.177
   414.6,0.001454,0.000849, 28,0.022868,0.000156,  29.176
   414.8,0.001456,0.000849, 28,0.022847,0.000133,  29.173
   415.0,0.001462,0.000849, 28,0.022825,0.000156,  29.175
   415.2,0.001459,0.000851, 28,0.022787,0.000156,  29.180
   415.4,0.001459,0.000856, 28,0.022774,0.000133,  29.179
   415.6,0.001465,0.000850, 28,0.022764,0.000156,  29.180
   415.8,0.001461,0.000857, 28,0.022766,0.000156,  29.173
   416.0,0.001465,0.000860, 28,0.022406,0.000133,  29.178
   416.2,0.001468,0.000859, 28,0.021853,0.000156,  29.178
   416.4,0.001462,0.000860, 28,0.021117,0.000156,  29.179
   416.6,0.001468,0.000855, 28,0.021088,0.000133,  29.184
   416.8,0.001466,0.000857, 28,0.021321,0.000156,  29.179
   417.0,0.001460,0.000859, 28,0.021804,0.000156,  29.180
   417.2,0.001466,0.000855, 28,0.021929,0.000133,  29.180
   417.4,0.001461,0.000854, 28,0.022004,0.000156,  29.181
   417.6,0.001452,0.000856, 28,0.022035,0.000156,  29.178
   417.8,0.001458,0.000861, 28,0.022114,0.000133,  29.177
   418.0,0.001456,0.000857, 28,0.022205,0.000156,  29.184
   418.2,0.001447,0.000853, 28,0.022297,0.000156,  29.183
   418.4,0.001451,0.000857, 28,0.022318,0.000133,  29.179
   418.6,0.001451,0.000852, 28,0.022296,0.000156,  29.186
   418.8,0.001447,0.000847, 28,0.022236,0.000156,  29.186
   419.0,0.001451,0.000847, 28,0.022217,0.000133,  29.185
   419.2,0.001451,0.000845, 28,0.022211,0.000156,  29.188
   419.4,0.001447,0.000843, 28,0.022201,0.000156,  29.180
   419.6,0.001448,0.000847, 28,0.022208,0.000156,  29.186
   419.8,0.001446,0.000848, 28,0.022221,0.000156,  29.185
   420.0,0.001440,0.000847, 28,0.022242,0.000142,  29.185
   420.2,0.001446,0.000846, 28,0.022284,0.000156,  29.187
   420.4,0.001443,0.000844, 28,0.022197,0.000142,  29.182
   420.6,0.001440,0.000846, 28,0.022031,0.000142,  29.180
   420.8,0.001448,0.000843, 28,0.021799,0.000142,  29.183
   421.0,0.001451,0.000843, 28,0.021761,0.000106,  29.183
   421.2,0.001447,0.000844, 28,0.021777,0.000142,  29.187
   421.4,0.001451,0.000843, 28,0.021838,0.000142,  29.187
   421.6,0.001451,0.000843, 28,0.021672,0.000106,  29.189
   421.8,0.001447,0.000848, 28,0.021417,0.000142,  29.186
   422.0,0.001448,0.000846, 28,0.021066,0.000142,  29.187
   422.2,0.001446,0.000848, 28,0.021077,0.000119,  29.186
   422.4,0.001442,0.000847, 28,0.021211,0.000156,  29.187
   422.6,0.001446,0.000851, 28,0.021479,0.000156,  29.191
   422.8,0.001446,0.000850, 28,0.021552,0.000133,  29.190
   423.0,0.001440,0.000854, 28,0.021579,0.000156,  29.185
   423.2,0.001443,0.000851, 28,0.021577,0.000156,  29.188
   423.4,0.001441,0.000851, 28,0.021587,0.000133,  29.186
   423.6,0.001438,0.000851, 28,0.021587,0.000156,  29.190
   423.8,0.001432,0.000850, 28,0.021572,0.000156,  29.189
   424.0,0.001430,0.000852, 28,0.021600,0.000169,  29.192
   424.2,0.001430,0.000851, 28,0.021644,0.000192,  29.187
   424.4,0.001426,0.000851, 28,0.021697,0.000192,  29.186
   424.6,0.001421,0.000849, 28,0.021678,0.000169,  29.193
   424.8,0.001425,0.000849, 28,0.021625,0.000156,  29.192
   425.0,0.001419,0.000847, 28,0.021545,0.000156,  29.192
   425.2,0.001414,0.000846, 28,0.021214,0.000133,  29.193
   425.4,0.001417,0.000844, 28,0.020750,0.000156,  29.187
   425.6,0.001414,0.000838, 28,0.020153,0.000156,  29.188
   425.8,0.001411,0.000839, 28,0.020126,0.000133,  29.187
   426.0,0.001417,0.000839, 28,0.020320,0.000169,  29.190
   426.2,0.001411,0.000834, 28,0.020736,0.000169,  29.188
   426.4,0.001411,0.000837, 28,0.020884,0.000133,  29.186
   426.6,0.001414,0.000835, 28,0.020996,0.000169,  29.187
   426.8,0.001409,0.000831, 28,0.021082,0.000169,  29.189
   427.0,0.001411,0.000835, 28,0.021124,0.000133,  29.188
   427.2,0.001414,0.000831, 28,0.021114,0.000169,  29.185
   427.4,0.001409,0.000829, 28,0.021076,0.000169,  29.189
   427.6,0.001406,0.000834, 28,0.021047,0.000133,  29.188
   427.8,0.001407,0.000837, 28,0.020994,0.000169,  29.191
   428.0,0.001398,0.000835, 28,0.020943,0.000169,  29.191
   428.2,0.001398,0.000835, 28,0.020923,0.000133,  29.189
   428.4,0.001404,0.000838, 28,0.020920,0.000169,  29.190
   428.6,0.001396,0.000838, 28,0.020931,0.000169,  29.191
   428.8,0.001393,0.000835, 28,0.020959,0.000169,  29.188
   429.0,0.001399,0.000833, 28,0.020968,0.000169,  29.190
   429.2,0.001396,0.000831, 28,0.020956,0.000169,  29.188
   429.4,0.001391,0.000831, 28,0.020956,0.000169,  29.190
   429.6,0.001394,0.000828, 28,0.020951,0.000169,  29.191
   429.8,0.001388,0.000826, 28,0.020931,0.000156,  29.188
   430.0,0.001383,0.000826, 28,0.020911,0.000156,  29.189
   430.2,0.001384,0.000824, 28,0.020852,0.000133,  29.192
   430.4,0.001378,0.000827, 28,0.020774,0.000156,  29.186
   430.6,0.001378,0.000825, 28,0.020677,0.000156,  29.188
   430.8,0.001384,0.000824, 28,0.020665,0.000133,  29.190
   431.0,0.001376,0.000820, 28,0.020671,0.000156,  29.191
   431.2,0.001373,0.000820, 28,0.020722,0.000156,  29.186
   431.4,0.001371,0.000821, 28,0.020701,0.000133,  29.187
   431.6,0.001371,0.000823, 28,0.020648,0.000156,  29.194
   431.8,0.001368,0.000819, 28,0.020577,0.000156,  29.187
   432.0,0.001368,0.000821, 28,0.020541,0.000133,  29.189
   432.2,0.001368,0.000823, 28,0.020518,0.000156,  29.189
   432.4,0.001366,0.000817, 28,0.020498,0.000156,  29.191
   432.6,0.001363,0.000820, 28,0.020490,0.000133,  29.193
   432.8,0.001361,0.000817, 28,0.020499,0.000156,  29.188
   433.0,0.001361,0.000815, 28,0.020512,0.000156,  29.190
   433.2,0.001361,0.000814, 28,0.020471,0.000133,  29.190
   433.4,0.001361,0.000812, 28,0.020431,0.000156,  29.189
   433.6,0.001361,0.000814, 28,0.020360,0.000156,  29.192
   433.8,0.001361,0.000809, 28,0.020324,0.000133,  29.191
   434.0,0.001361,0.000808, 28,0.020295,0.000156,  29.191
   434.2,0.001358,0.000811, 28,0.020274,0.000156,  29.189
   434.4,0.001359,0.000808, 28,0.020196,0.000133,  29.189
   434.6,0.001364,0.000804, 28,0.020100,0.000156,  29.192
   434.8,0.001358,0.000805, 28,0.019966,0.000156,  29.193
   435.0,0.001358,0.000810, 28,0.019920,0.000119,  29.195
   435.2,0.001358,0.000808, 28,0.019913,0.000142,  29.199
   435.4,0.001354,0.000809, 28,0.019932,0.000142,  29.195
   435.6,0.001360,0.000812, 28,0.019938,0.000119,  29.191
   435.8,0.001358,0.000809, 28,0.019958,0.000156,  29.196
   436.0,0.001354,0.000809, 28,0.019987,0.000156,  29.192
   436.2,0.001354,0.000807, 28,0.020003,0.000133,  29.198
   436.4,0.001352,0.000803, 28,0.020014,0.000156,  29.194
   436.6,0.001348,0.000805, 28,0.020018,0.000142,  29.196
   436.8,0.001346,0.000803, 28,0.020011,0.000142,  29.199
   437.0,0.001349,0.000799, 28,0.019989,0.000165,  29.194
   437.2,0.001343,0.000805, 28,0.019944,0.000201,  29.204
   437.4,0.001341,0.000805, 28,0.019890,0.000165,  29.200
   437.6,0.001344,0.000801, 28,0.019859,0.000165,  29.201
   437.8,0.001338,0.000807, 28,0.019821,0.000165,  29.200
   438.0,0.001338,0.000805, 28,0.019771,0.000178,  29.194
   438.2,0.001342,0.000805, 28,0.019627,0.000178,  29.200
   438.4,0.001333,0.000803, 28,0.019440,0.000178,  29.197
   438.6,0.001333,0.000804, 28,0.019197,0.000192,  29.200
   438.8,0.001334,0.000802, 28,0.019152,0.000192,  29.197
   439.0,0.001328,0.000804, 28,0.019173,0.000178,  29.200
   439.2,0.001328,0.000800, 28,0.019267,0.000178,  29.201
   439.4,0.001334,0.000804, 28,0.019152,0.000178,  29.202
   439.6,0.001331,0.000802, 28,0.018950,0.000178,  29.203
   439.8,0.001328,0.000798, 28,0.018675,0.000178,  29.195
   440.0,0.001329,0.000798, 28,0.018645,0.000178,  29.202
   440.2,0.001326,0.000796, 28,0.018679,0.000178,  29.200
   440.4,0.001326,0.000794, 28,0.018791,0.000178,  29.202
   440.6,0.001332,0.000799, 28,0.018846,0.000192,  29.205
   440.8,0.001334,0.000795, 28,0.018922,0.000192,  29.199
   441.0,0.001331,0.000797, 28,0.019008,0.000192,  29.196
   441.2,0.001331,0.000798, 28,0.018752,0.000205,  29.200
   441.4,0.001337,0.000794, 28,0.018340,0.000192,  29.199
   441.6,0.001328,0.000799, 28,0.017770,0.000192,  29.199
   441.8,0.001326,0.000802, 28,0.017760,0.000205,  29.201
   442.0,0.001329,0.000804, 28,0.017955,0.000192,  29.198
   442.2,0.001323,0.000807, 28,0.018346,0.000192,  29.197
   442.4,0.001321,0.000809, 28,0.018470,0.000205,  29.198
   442.6,0.001316,0.000811, 28,0.018548,0.000192,  29.199
   442.8,0.001316,0.000807, 28,0.018604,0.000192,  29.200
   443.0,0.001313,0.000807, 28,0.018613,0.000205,  29.201
   443.2,0.001311,0.000809, 28,0.018573,0.000205,  29.199
   443.4,0.001308,0.000801, 28,0.018492,0.000205,  29.196
   443.6,0.001306,0.000803, 28,0.018489,0.000205,  29.198
   443.8,0.001303,0.000803, 28,0.018521,0.000205,  29.200
   444.0,0.001303,0.000795, 28,0.018560,0.000205,  29.198
   444.2,0.001298,0.000793, 28,0.018607,0.000205,  29.200
   444.4,0.001298,0.000793, 28,0.018676,0.000205,  29.195
   444.6,0.001298,0.000790, 28,0.018755,0.000205,  29.200
   444.8,0.001298,0.000788, 28,0.018779,0.000205,  29.201
   445.0,0.001296,0.000790, 28,0.018790,0.000205,  29.200
   445.2,0.001296,0.000790, 28,0.018776,0.000205,  29.200
   445.4,0.001293,0.000788, 28,0.018761,0.000205,  29.201
   445.6,0.001288,0.000785, 28,0.018733,0.000205,  29.191
   445.8,0.001286,0.000785, 28,0.018688,0.000205,  29.188
   446.0,0.001286,0.000788, 28,0.018646,0.000205,  29.192
   446.2,0.001286,0.000784, 28,0.018579,0.000169,  29.191
   446.4,0.001283,0.000782, 28,0.018516,0.000205,  29.193
   446.6,0.001281,0.000785, 28,0.018432,0.000205,  29.194
   446.8,0.001281,0.000785, 28,0.018101,0.000205,  29.188
   447.0,0.001281,0.000783, 28,0.017644,0.000192,  29.189
   447.2,0.001276,0.000781, 28,0.017044,0.000192,  29.184
   447.4,0.001276,0.000778, 28,0.017002,0.000205,  29.177
   447.6,0.001271,0.000771, 28,0.017180,0.000192,  29.180
   447.8,0.001271,0.000768, 28,0.017564,0.000215,  29.181
   448.0,0.001271,0.000768, 28,0.017672,0.000215,  29.179
   448.2,0.001271,0.000764, 28,0.017746,0.000201,  29.176
   448.4,0.001271,0.000768, 28,0.017790,0.000188,  29.179
   448.6,0.001274,0.000771, 28,0.017850,0.000188,  29.176
   448.8,0.001268,0.000771, 28,0.017879,0.000165,  29.179
   449.0,0.001268,0.000770, 28,0.017906,0.000129,  29.177
   449.2,0.001265,0.000768, 28,0.017921,0.000129,  29.183
   449.4,0.001263,0.000770, 28,0.017938,0.000165,  29.179
   449.6,0.001263,0.000764, 28,0.017932,0.000178,  29.180
   449.8,0.001263,0.000765, 28,0.017915,0.000178,  29.180
   450.0,0.001263,0.000765, 28,0.017893,0.000178,  29.180
   450.2,0.001260,0.000762, 28,0.017856,0.000192,  29.173
   450.4,0.001258,0.000767, 28,0.017605,0.000205,  29.179
   450.6,0.001261,0.000767, 28,0.017236,0.000192,  29.180
   450.8,0.001255,0.000762, 28,0.016762,0.000192,  29.182
   451.0,0.001259,0.000765, 28,0.016721,0.000205,  29.181
   451.2,0.001262,0.000765, 28,0.016858,0.000192,  29.184
   451.4,0.001256,0.000760, 28,0.017153,0.000192,  29.181
   451.6,0.001262,0.000763, 28,0.017231,0.000205,  29.180
   451.8,0.001257,0.000763, 28,0.017290,0.000192,  29.179
   452.0,0.001249,0.000759, 28,0.017325,0.000192,  29.179
   452.2,0.001255,0.000763, 28,0.017370,0.000205,  29.180
   452.4,0.001252,0.000763, 28,0.017414,0.000192,  29.182
   452.6,0.001244,0.000756, 28,0.017450,0.000192,  29.181
   452.8,0.001250,0.000756, 28,0.017472,0.000192,  29.181
   453.0,0.001250,0.000757, 28,0.017505,0.000178,  29.182
   453.2,0.001246,0.000757, 28,0.017525,0.000178,  29.182
   453.4,0.001252,0.000759, 28,0.017498,0.000178,  29.176
   453.6,0.001250,0.000759, 28,0.017459,0.000178,  29.184
   453.8,0.001246,0.000758, 28,0.017396,0.000178,  29.183
   454.0,0.001250,0.000759, 28,0.017360,0.000178,  29.183
   454.2,0.001245,0.000757, 28,0.017322,0.000178,  29.177
   454.4,0.001241,0.000753, 28,0.017277,0.000178,  29.179
   454.6,0.001247,0.000759, 28,0.017249,0.000178,  29.178
   454.8,0.001245,0.000763, 28,0.017229,0.000178,  29.172
   455.0,0.001239,0.000762, 28,0.017222,0.000178,  29.176
   455.2,0.001242,0.000760, 28,0.017215,0.000192,  29.179
   455.4,0.001237,0.000760, 28,0.017172,0.000142,  29.178
   455.6,0.001231,0.000760, 28,0.017113,0.000178,  29.177
   455.8,0.001234,0.000754, 28,0.017050,0.000192,  29.175
   456.0,0.001234,0.000752, 28,0.016665,0.000178,  29.175
   456.2,0.001228,0.000750, 28,0.016107,0.000178,  29.172
   456.4,0.001230,0.000753, 28,0.015371,0.000178,  29.174
   456.6,0.001234,0.000753, 28,0.015314,0.000178,  29.170
   456.8,0.001228,0.000757, 28,0.015526,0.000178,  29.168
   457.0,0.001230,0.000757, 28,0.015968,0.000178,  29.171
   457.2,0.001228,0.000757, 28,0.015981,0.000178,  29.173
   457.4,0.001225,0.000757, 28,0.015918,0.000178,  29.174
   457.6,0.001229,0.000757, 28,0.015753,0.000178,  29.175
   457.8,0.001227,0.000755, 28,0.015782,0.000178,  29.171
   458.0,0.001221,0.000757, 28,0.015885,0.000178,  29.171
   458.2,0.001222,0.000757, 28,0.016028,0.000178,  29.166
   458.4,0.001220,0.000755, 28,0.016064,0.000178,  29.171
   458.6,0.001214,0.000757, 28,0.016081,0.000178,  29.167
   458.8,0.001214,0.000755, 28,0.016073,0.000178,  29.170
   459.0,0.001211,0.000751, 28,0.016117,0.000178,  29.174
   459.2,0.001209,0.000751, 28,0.016176,0.000178,  29.168
   459.4,0.001203,0.000748, 28,0.016250,0.000165,  29.168
   459.6,0.001206,0.000742, 28,0.016198,0.000165,  29.168
   459.8,0.001210,0.000742, 28,0.016069,0.000165,  29.171
   460.0,0.001204,0.000744, 28,0.015878,0.000152,  29.167
   460.2,0.001205,0.000744, 28,0.015882,0.000152,  29.169
   460.4,0.001202,0.000742, 28,0.015941,0.000165,  29.169
   460.6,0.001196,0.000742, 28,0.016062,0.000165,  29.169
   460.8,0.001200,0.000739, 28,0.016049,0.000165,  29.169
   461.0,0.001200,0.000739, 28,0.016005,0.000165,  29.170
   461.2,0.001196,0.000738, 28,0.015933,0.000178,  29.171
   461.4,0.001200,0.000735, 28,0.015946,0.000178,  29.168
   461.6,0.001197,0.000738, 28,0.015984,0.000178,  29.172
   461.8,0.001194,0.000734, 28,0.016059,0.000192,  29.172
   462.0,0.001197,0.000731, 28,0.016110,0.000192,  29.169
   462.2,0.001197,0.000728, 28,0.016134,0.000178,  29.170
   462.4,0.001191,0.000725, 28,0.016163,0.000178,  29.168
   462.6,0.001197,0.000727, 28,0.016143,0.000178,  29.168
   462.8,0.001195,0.000725, 28,0.016077,0.000178,  29.177
   463.0,0.001189,0.000728, 28,0.015996,0.000165,  29.173
   463.2,0.001191,0.000728, 28,0.015989,0.000165,  29.172
   463.4,0.001189,0.000726, 28,0.015993,0.000152,  29.168
   463.6,0.001183,0.000726, 28,0.016020,0.000152,  29.173
   463.8,0.001185,0.000726, 28,0.016064,0.000152,  29.167
   464.0,0.001189,0.000724, 28,0.016037,0.000165,  29.168
   464.2,0.001183,0.000724, 28,0.016005,0.000165,  29.172
   464.4,0.001183,0.000728, 28,0.015949,0.000178,  29.173
   464.6,0.001184,0.000730, 28,0.015914,0.000129,  29.173
   464.8,0.001178,0.000723, 28,0.015880,0.000165,  29.172
   465.0,0.001180,0.000729, 28,0.015857,0.000178,  29.172
   465.2,0.001184,0.000732, 28,0.015434,0.000178,  29.171
   465.4,0.001178,0.000728, 28,0.014803,0.000165,  29.171
   465.6,0.001178,0.000731, 28,0.013994,0.000165,  29.173
   465.8,0.001181,0.000729, 28,0.013927,0.000165,  29.168
   466.0,0.001173,0.000733, 28,0.014127,0.000165,  29.172
   466.2,0.001170,0.000731, 28,0.014612,0.000165,  29.172
   466.4,0.001174,0.000736, 28,0.014796,0.000165,  29.170
   466.6,0.001168,0.000732, 28,0.014952,0.000165,  29.171
   466.8,0.001165,0.000734, 28,0.015106,0.000178,  29.170
   467.0,0.001171,0.000732, 28,0.015182,0.000178,  29.169
   467.2,0.001168,0.000735, 28,0.015219,0.000178,  29.170
   467.4,0.001168,0.000733, 28,0.015198,0.000192,  29.172
   467.6,0.001174,0.000733, 28,0.015227,0.000192,  29.174
   467.8,0.001174,0.000735, 28,0.015275,0.000178,  29.172
   468.0,0.001168,0.000735, 28,0.015318,0.000178,  29.166
   468.2,0.001169,0.000732, 28,0.015054,0.000192,  29.167
   468.4,0.001170,0.000728, 28,0.014630,0.000192,  29.166
   468.6,0.001164,0.000725, 28,0.014057,0.000192,  29.173
   468.8,0.001170,0.000728, 28,0.014001,0.000205,  29.170
   469.0,0.001170,0.000728, 28,0.014149,0.000192,  29.174
   469.2,0.001164,0.000726, 28,0.014465,0.000192,  29.170
   469.4,0.001170,0.000726, 28,0.014267,0.000205,  29.174
   469.6,0.001170,0.000726, 28,0.013923,0.000192,  29.176
   469.8,0.001164,0.000723, 28,0.013415,0.000192,  29.170
   470.0,0.001170,0.000725, 28,0.013424,0.000205,  29.174
   470.2,0.001167,0.000725, 28,0.013608,0.000192,  29.172
   470.4,0.001161,0.000725, 28,0.013975,0.000192,  29.173
   470.6,0.001164,0.000728, 28,0.014142,0.000205,  29.175
   470.8,0.001161,0.000726, 28,0.014303,0.000192,  29.178
   471.0,0.001155,0.000726, 28,0.014448,0.000192,  29.176
   471.2,0.001158,0.000724, 28,0.014530,0.000205,  29.177
   471.4,0.001161,0.000724, 28,0.014588,0.000192,  29.177
   471.6,0.001153,0.000722, 28,0.014611,0.000192,  29.180
   471.8,0.001153,0.000725, 28,0.014643,0.000205,  29.179
   472.0,0.001156,0.000725, 28,0.014656,0.000205,  29.178
   472.2,0.001148,0.000723, 28,0.014658,0.000205,  29.186
   472.4,0.001148,0.000726, 28,0.014646,0.000205,  29.182
   472.6,0.001154,0.000726, 28,0.014673,0.000205,  29.185
   472.8,0.001150,0.000718, 28,0.014701,0.000205,  29.188
   473.0,0.001145,0.000720, 28,0.014750,0.000205,  29.184
   473.2,0.001146,0.000719, 28,0.014661,0.000169,  29.187
   473.4,0.001140,0.000717, 28,0.014527,0.000205,  29.186
   473.6,0.001140,0.000716, 28,0.014325,0.000205,  29.189
   473.8,0.001144,0.000714, 28,0.014124,0.000192,  29.192
   474.0,0.001138,0.000719, 28,0.013881,0.000215,  29.186
   474.2,0.001138,0.000717, 28,0.013602,0.000251,  29.195
   474.4,0.001141,0.000715, 28,0.013588,0.000264,  29.192
   474.6,0.001135,0.000722, 28,0.013677,0.000228,  29.197
   474.8,0.001133,0.000714, 28,0.013875,0.000192,  29.195
   475.0,0.001136,0.000720, 28,0.013902,0.000205,  29.195
   475.2,0.001128,0.000720, 28,0.013900,0.000192,  29.201
   475.4,0.001128,0.000714, 28,0.013859,0.000156,  29.194
   475.6,0.001131,0.000716, 28,0.013912,0.000169,  29.196
   475.8,0.001125,0.000714, 28,0.014013,0.000192,  29.200
   476.0,0.001120,0.000709, 28,0.014138,0.000192,  29.200
   476.2,0.001123,0.000707, 28,0.014185,0.000205,  29.202
   476.4,0.001121,0.000705, 28,0.014214,0.000192,  29.200
   476.6,0.001115,0.000703, 28,0.014223,0.000192,  29.204
   476.8,0.001112,0.000704, 28,0.014243,0.000205,  29.201
   477.0,0.001118,0.000703, 28,0.014255,0.000192,  29.205
   477.2,0.001110,0.000702, 28,0.014264,0.000192,  29.203
   477.4,0.001110,0.000704, 28,0.014268,0.000205,  29.206
   477.6,0.001118,0.000702, 28,0.014258,0.000192,  29.213
   477.8,0.001112,0.000701, 28,0.014238,0.000192,  29.213
   478.0,0.001110,0.000706, 28,0.014233,0.000205,  29.217
   478.2,0.001113,0.000704, 28,0.014219,0.000192,  29.219
   478.4,0.001107,0.000703, 28,0.014191,0.000192,  29.219
   478.6,0.001110,0.000703, 28,0.014139,0.000205,  29.220
   478.8,0.001112,0.000703, 28,0.014077,0.000192,  29.219
   479.0,0.001110,0.000699, 28,0.013982,0.000192,  29.216
   479.2,0.001107,0.000696, 28,0.013936,0.000205,  29.227
   479.4,0.001105,0.000696, 28,0.013898,0.000192,  29.223
   479.6,0.001102,0.000690, 28,0.013863,0.000192,  29.225
   479.8,0.001100,0.000696, 28,0.013853,0.000169,  29.223
   480.0,0.001100,0.000696, 28,0.013870,0.000156,  29.225
   480.2,0.001102,0.000692, 28,0.013892,0.000156,  29.230
   480.4,0.001102,0.000697, 28,0.013859,0.000133,  29.228
   480.6,0.001102,0.000696, 28,0.013807,0.000156,  29.230
   480.8,0.001105,0.000690, 28,0.013738,0.000156,  29.235
   481.0,0.001102,0.000691, 28,0.013709,0.000133,  29.237
   481.2,0.001097,0.000687, 28,0.013704,0.000156,  29.234
   481.4,0.001097,0.000689, 28,0.013711,0.000156,  29.237
   481.6,0.001097,0.000695, 28,0.013722,0.000156,  29.238
   481.8,0.001092,0.000695, 28,0.013694,0.000169,  29.237
   482.0,0.001090,0.000692, 28,0.013642,0.000156,  29.237
   482.2,0.001087,0.000695, 28,0.013587,0.000169,  29.242
   482.4,0.001088,0.000698, 28,0.013575,0.000169,  29.242
   482.6,0.001082,0.000695, 28,0.013580,0.000156,  29.241
   482.8,0.001082,0.000694, 28,0.013605,0.000156,  29.244
   483.0,0.001085,0.000694, 28,0.013561,0.000133,  29.241
   483.2,0.001087,0.000690, 28,0.013492,0.000156,  29.244
   483.4,0.001087,0.000689, 28,0.013399,0.000156,  29.246
   483.6,0.001085,0.000687, 28,0.013357,0.000133,  29.243
   483.8,0.001082,0.000689, 28,0.013335,0.000156,  29.249
   484.0,0.001082,0.000691, 28,0.013323,0.000156,  29.250
   484.2,0.001080,0.000695, 28,0.013184,0.000133,  29.252
   484.4,0.001080,0.000693, 28,0.012976,0.000156,  29.252
   484.6,0.001077,0.000693, 28,0.012717,0.000156,  29.253
   484.8,0.001077,0.000693, 28,0.012703,0.000133,  29.253
   485.0,0.001077,0.000689, 28,0.012769,0.000169,  29.253
   485.2,0.001080,0.000693, 28,0.012934,0.000169,  29.253
   485.4,0.001080,0.000695, 28,0.012680,0.000133,  29.247
   485.6,0.001082,0.000694, 28,0.012261,0.000169,  29.247
   485.8,0.001082,0.000695, 28,0.011686,0.000169,  29.248
   486.0,0.001080,0.000697, 28,0.011666,0.000133,  29.244
   486.2,0.001075,0.000694, 28,0.011854,0.000169,  29.245
   486.4,0.001075,0.000692, 28,0.012239,0.000169,  29.248
   486.6,0.001075,0.000694, 28,0.012079,0.000133,  29.244
   486.8,0.001076,0.000693, 28,0.011734,0.000169,  29.240
   487.0,0.001070,0.000690, 28,0.011223,0.000169,  29.241
   487.2,0.001078,0.000690, 28,0.011140,0.000133,  29.239
   487.4,0.001082,0.000685, 28,0.011176,0.000169,  29.237
   487.6,0.001076,0.000689, 28,0.011340,0.000169,  29.237
   487.8,0.001084,0.000690, 28,0.011349,0.000133,  29.233
   488.0,0.001082,0.000690, 28,0.011344,0.000169,  29.232
   488.2,0.001076,0.000685, 28,0.011314,0.000169,  29.230
   488.4,0.001076,0.000685, 28,0.011393,0.000133,  29.231
   488.6,0.001073,0.000687, 28,0.011517,0.000169,  29.230
   488.8,0.001065,0.000683, 28,0.011680,0.000169,  29.224
   489.0,0.001062,0.000685, 28,0.011840,0.000133,  29.227
   489.2,0.001066,0.000685, 28,0.012015,0.000169,  29.227
   489.4,0.001057,0.000681, 28,0.012200,0.000169,  29.223
   489.6,0.001057,0.000684, 28,0.012273,0.000156,  29.218
   489.8,0.001066,0.000686, 28,0.012298,0.000178,  29.220
   490.0,0.001060,0.000679, 28,0.012275,0.000178,  29.222
   490.2,0.001057,0.000683, 28,0.012189,0.000178,  29.220
   490.4,0.001058,0.000683, 28,0.012188,0.000178,  29.216
   490.6,0.001052,0.000678, 28,0.012197,0.000178,  29.215
   490.8,0.001052,0.000676, 28,0.012208,0.000192,  29.218
   491.0,0.001047,0.000675, 28,0.012259,0.000142,  29.218
   491.2,0.001047,0.000677, 28,0.012327,0.000178,  29.213
   491.4,0.001047,0.000678, 28,0.012425,0.000192,  29.212
   491.6,0.001051,0.000679, 28,0.012427,0.000192,  29.214
   491.8,0.001045,0.000677, 28,0.012381,0.000192,  29.214
   492.0,0.001045,0.000676, 28,0.012288,0.000215,  29.214
   492.2,0.001051,0.000676, 28,0.012283,0.000215,  29.220
   492.4,0.001045,0.000678, 28,0.012301,0.000201,  29.213
   492.6,0.001045,0.000678, 28,0.012323,0.000188,  29.216
   492.8,0.001042,0.000676, 28,0.012310,0.000188,  29.217
   493.0,0.001042,0.000679, 28,0.012284,0.000165,  29.217
   493.2,0.001042,0.000679, 28,0.012247,0.000129,  29.216
   493.4,0.001040,0.000680, 28,0.012226,0.000129,  29.216
   493.6,0.001037,0.000680, 28,0.012199,0.000165,  29.219
   493.8,0.001037,0.000678, 28,0.012176,0.000178,  29.220
   494.0,0.001035,0.000673, 28,0.012157,0.000178,  29.219
   494.2,0.001035,0.000670, 28,0.012145,0.000178,  29.220
   494.4,0.001035,0.000666, 28,0.012140,0.000192,  29.220
   494.6,0.001035,0.000670, 28,0.012111,0.000192,  29.221
   494.8,0.001035,0.000670, 28,0.012072,0.000178,  29.221
   495.0,0.001032,0.000664, 28,0.012026,0.000178,  29.222
   495.2,0.001032,0.000667, 28,0.012014,0.000178,  29.219
   495.4,0.001027,0.000669, 28,0.012011,0.000178,  29.224
   495.6,0.001027,0.000661, 28,0.012014,0.000165,  29.224
   495.8,0.001022,0.000663, 28,0.012002,0.000165,  29.223
   496.0,0.001020,0.000662, 28,0.011981,0.000165,  29.222
   496.2,0.001017,0.000660, 28,0.011951,0.000165,  29.225
   496.4,0.001017,0.000659, 28,0.011917,0.000165,  29.219
   496.6,0.001012,0.000653, 28,0.011880,0.000178,  29.227
   496.8,0.001012,0.000654, 28,0.011834,0.000215,  29.229
   497.0,0.001010,0.000649, 28,0.011760,0.000215,  29.223
   497.2,0.001016,0.000645, 28,0.011666,0.000201,  29.228
   497.4,0.001015,0.000644, 28,0.011547,0.000201,  29.226
   497.6,0.001015,0.000648, 28,0.011535,0.000201,  29.224
   497.8,0.001017,0.000646, 28,0.011565,0.000178,  29.227
   498.0,0.001020,0.000645, 28,0.011626,0.000156,  29.229
   498.2,0.001022,0.000649, 28,0.011614,0.000156,  29.229
   498.4,0.001020,0.000649, 28,0.011585,0.000178,  29.227
   498.6,0.001020,0.000650, 28,0.011539,0.000178,  29.226
   498.8,0.001022,0.000653, 28,0.011516,0.000178,  29.227
   499.0,0.001020,0.000650, 28,0.011495,0.000178,  29.225
   499.2,0.001014,0.000651, 28,0.011479,0.000178,  29.228
   499.4,0.001016,0.000657, 28,0.011458,0.000192,  29.228
   499.6,0.001014,0.000656, 28,0.011462,0.000142,  29.228
   499.8,0.001005,0.000653, 28,0.011473,0.000178,  29.224
   500.0,0.001005,0.000654, 28,0.011497,0.000192,  29.223
   500.2,0.001009,0.000654, 28,0.011460,0.000178,  29.229
   500.4,0.001015,0.000653, 28,0.011404,0.000178,  29.230
   500.6,0.001015,0.000651, 28,0.011305,0.000178,  29.233
   500.8,0.001017,0.000651, 28,0.011292,0.000178,  29.232
   501.0,0.001020,0.000654, 28,0.011301,0.000178,  29.229
   501.2,0.001025,0.000652, 28,0.011328,0.000178,  29.230
   501.4,0.001019,0.000652, 28,0.011222,0.000178,  29.231
   501.6,0.001013,0.000647, 28,0.011059,0.000178,  29.233
   501.8,0.001013,0.000651, 28,0.010835,0.000178,  29.227
   502.0,0.001016,0.000655, 28,0.010775,0.000178,  29.233
   502.2,0.001022,0.000655, 28,0.010780,0.000178,  29.231
   502.4,0.001022,0.000657, 28,0.010828,0.000178,  29.233
   502.6,0.001022,0.000662, 28,0.010856,0.000192,  29.232
   502.8,0.001022,0.000660, 28,0.010897,0.000192,  29.230
   503.0,0.001020,0.000661, 28,0.010948,0.000192,  29.230
   503.2,0.001011,0.000667, 28,0.010804,0.000192,  29.232
   503.4,0.001005,0.000669, 28,0.010563,0.000178,  29.227
   503.6,0.001003,0.000667, 28,0.010228,0.000178,  29.230
   503.8,0.001000,0.000666, 28,0.010048,0.000192,  29.227
   504.0,0.001004,0.000667, 28,0.009874,0.000192,  29.226
   504.2,0.001010,0.000664, 28,0.009728,0.000192,  29.229
   504.4,0.001010,0.000658, 28,0.009784,0.000205,  29.229
   504.6,0.001010,0.000658, 28,0.009945,0.000192,  29.228
   504.8,0.001012,0.000657, 28,0.010227,0.000192,  29.228
   505.0,0.001010,0.000659, 28,0.010301,0.000205,  29.228
   505.2,0.001004,0.000655, 28,0.010340,0.000192,  29.226
   505.4,0.001000,0.000653, 28,0.010338,0.000192,  29.227
   505.6,0.000995,0.000655, 28,0.010405,0.000205,  29.228
   505.8,0.000999,0.000649, 28,0.010492,0.000192,  29.231
   506.0,0.001001,0.000653, 28,0.010587,0.000192,  29.223
   506.2,0.001001,0.000658, 28,0.010623,0.000205,  29.230
   506.4,0.001001,0.000652, 28,0.010641,0.000192,  29.228
   506.6,0.001004,0.000652, 28,0.010634,0.000192,  29.227
   506.8,0.001001,0.000653, 28,0.010634,0.000205,  29.226
   507.0,0.000999,0.000649, 28,0.010605,0.000192,  29.229
   507.2,0.001001,0.000648, 28,0.010574,0.000192,  29.229
   507.4,0.000999,0.000652, 28,0.010559,0.000205,  29.230
   507.6,0.000999,0.000652, 28,0.010552,0.000192,  29.225
   507.8,0.000999,0.000652, 28,0.010545,0.000192,  29.225
   508.0,0.000999,0.000658, 28,0.010540,0.000205,  29.224
   508.2,0.000996,0.000658, 28,0.010542,0.000192,  29.227
   508.4,0.000996,0.000659, 28,0.010544,0.000192,  29.224
   508.6,0.000996,0.000653, 28,0.010553,0.000192,  29.228
   508.8,0.000991,0.000651, 28,0.010546,0.000169,  29.227
   509.0,0.000995,0.000652, 28,0.010512,0.000192,  29.226
   509.2,0.000995,0.000651, 28,0.010489,0.000205,  29.221
   509.4,0.000992,0.000645, 28,0.010477,0.000205,  29.227
   509.6,0.000996,0.000642, 28,0.010463,0.000192,  29.219
   509.8,0.000996,0.000648, 28,0.010456,0.000192,  29.222
   510.0,0.000990,0.000646, 28,0.010426,0.000205,  29.224
   510.2,0.000990,0.000648, 28,0.010380,0.000192,  29.223
   510.4,0.000985,0.000645, 28,0.010313,0.000192,  29.223
   510.6,0.000977,0.000650, 28,0.010283,0.000205,  29.226
   510.8,0.000975,0.000650, 28,0.010248,0.000192,  29.224
   511.0,0.000972,0.000648, 28,0.010215,0.000192,  29.221
   511.2,0.000967,0.000651, 28,0.010220,0.000205,  29.221
   511.4,0.000967,0.000648, 28,0.010249,0.000192,  29.218
   511.6,0.000967,0.000646, 28,0.010291,0.000192,  29.219
   511.8,0.000967,0.000644, 28,0.010256,0.000205,  29.221
   512.0,0.000970,0.000639, 28,0.010196,0.000192,  29.220
   512.2,0.000967,0.000640, 28,0.010113,0.000192,  29.226
   512.4,0.000965,0.000639, 28,0.010060,0.000205,  29.220
   512.6,0.000965,0.000636, 28,0.010009,0.000192,  29.219
   512.8,0.000965,0.000634, 28,0.009964,0.000192,  29.217
   513.0,0.000962,0.000633, 28,0.009976,0.000205,  29.221
   513.2,0.000960,0.000629, 28,0.009999,0.000192,  29.222
   513.4,0.000960,0.000628, 28,0.010059,0.000192,  29.221
   513.6,0.000955,0.000631, 28,0.010047,0.000205,  29.222
   513.8,0.000950,0.000628, 28,0.010005,0.000192,  29.224
   514.0,0.000950,0.000628, 28,0.009942,0.000192,  29.220
   514.2,0.000952,0.000632, 28,0.009836,0.000205,  29.221
   514.4,0.000952,0.000629, 28,0.009697,0.000192,  29.222
   514.6,0.000952,0.000631, 28,0.009514,0.000192,  29.223
   514.8,0.000957,0.000633, 28,0.009449,0.000205,  29.223
   515.0,0.000957,0.000630, 28,0.009440,0.000192,  29.220
   515.2,0.000957,0.000626, 28,0.009470,0.000192,  29.227
   515.4,0.000957,0.000626, 28,0.009465,0.000205,  29.225
   515.6,0.000958,0.000623, 28,0.009466,0.000192,  29.224
   515.8,0.000952,0.000621, 28,0.009475,0.000192,  29.224
   516.0,0.000955,0.000628, 28,0.009285,0.000205,  29.224
   516.2,0.000958,0.000631, 28,0.009002,0.000192,  29.227
   516.4,0.000952,0.000627, 28,0.008622,0.000192,  29.230
   516.6,0.000955,0.000625, 28,0.008532,0.000205,  29.226
   516.8,0.000952,0.000627, 28,0.008555,0.000192,  29.226
   517.0,0.000952,0.000628, 28,0.008659,0.000192,  29.222
   517.2,0.000952,0.000629, 28,0.008878,0.000192,  29.225
   517.4,0.000950,0.000625, 28,0.008920,0.000169,  29.224
   517.6,0.000947,0.000622, 28,0.008954,0.000192,  29.227
   517.8,0.000947,0.000623, 28,0.008992,0.000205,  29.223
   518.0,0.000950,0.000622, 28,0.009026,0.000205,  29.224
   518.2,0.000944,0.000627, 28,0.009045,0.000192,  29.231
   518.4,0.000944,0.000625, 28,0.009072,0.000192,  29.223
   518.6,0.000950,0.000619, 28,0.009082,0.000205,  29.225
   518.8,0.000947,0.000625, 28,0.009082,0.000192,  29.224
   519.0,0.000944,0.000624, 28,0.009068,0.000192,  29.227
   519.2,0.000945,0.000624, 28,0.009102,0.000192,  29.222
   519.4,0.000942,0.000624, 28,0.009144,0.000178,  29.224
   519.6,0.000939,0.000628, 28,0.009197,0.000178,  29.223
   519.8,0.000943,0.000628, 28,0.009206,0.000178,  29.222
   520.0,0.000939,0.000627, 28,0.009192,0.000178,  29.229
   520.2,0.000937,0.000625, 28,0.009148,0.000178,  29.227
   520.4,0.000943,0.000622, 28,0.009136,0.000192,  29.223
   520.6,0.000943,0.000616, 28,0.009129,0.000192,  29.222
   520.8,0.000937,0.000619, 28,0.009115,0.000192,  29.226
   521.0,0.000937,0.000620, 28,0.008978,0.000205,  29.223
   521.2,0.000934,0.000616, 28,0.008772,0.000192,  29.223
   521.4,0.000934,0.000614, 28,0.008518,0.000192,  29.225
   521.6,0.000934,0.000619, 28,0.008495,0.000205,  29.216
   521.8,0.000932,0.000619, 28,0.008549,0.000192,  29.219
   522.0,0.000932,0.000614, 28,0.008690,0.000192,  29.220
   522.2,0.000932,0.000615, 28,0.008764,0.000169,  29.220
   522.4,0.000932,0.000614, 28,0.008832,0.000156,  29.217
   522.6,0.000932,0.000617, 28,0.008913,0.000142,  29.218
   522.8,0.000932,0.000617, 28,0.008938,0.000142,  29.216
   523.0,0.000938,0.000617, 28,0.008926,0.000165,  29.215
   523.2,0.000932,0.000618, 28,0.008887,0.000165,  29.215
   523.4,0.000932,0.000623, 28,0.008898,0.000165,  29.216
   523.6,0.000938,0.000621, 28,0.008908,0.000178,  29.212
   523.8,0.000932,0.000622, 28,0.008928,0.000192,  29.208
   524.0,0.000932,0.000626, 28,0.008937,0.000192,  29.206
   524.2,0.000938,0.000629, 28,0.008930,0.000178,  29.206
   524.4,0.000934,0.000627, 28,0.008928,0.000178,  29.205
   524.6,0.000937,0.000629, 28,0.008923,0.000192,  29.204
   524.8,0.000945,0.000627, 28,0.008931,0.000192,  29.207
   525.0,0.000942,0.000628, 28,0.008931,0.000192,  29.206
   525.2,0.000942,0.000623, 28,0.008933,0.000205,  29.201
   525.4,0.000942,0.000620, 28,0.008896,0.000192,  29.201
   525.6,0.000944,0.000622, 28,0.008835,0.000192,  29.205
   525.8,0.000942,0.000626, 28,0.008765,0.000192,  29.203
   526.0,0.000942,0.000625, 28,0.008728,0.000169,  29.207
   526.2,0.000944,0.000625, 28,0.008703,0.000192,  29.202
   526.4,0.000939,0.000625, 28,0.008680,0.000205,  29.204
   526.6,0.000937,0.000626, 28,0.008689,0.000205,  29.204
   526.8,0.000939,0.000625, 28,0.008709,0.000192,  29.199
   527.0,0.000939,0.000630, 28,0.008737,0.000192,  29.199
   527.2,0.000939,0.000626, 28,0.008744,0.000205,  29.205
   527.4,0.000942,0.000630, 28,0.008737,0.000192,  29.201
   527.6,0.000942,0.000624, 28,0.008707,0.000192,  29.198
   527.8,0.000942,0.000625, 28,0.008679,0.000169,  29.199
   528.0,0.000944,0.000622, 28,0.008628,0.000156,  29.199
   528.2,0.000939,0.000625, 28,0.008581,0.000156,  29.198
   528.4,0.000943,0.000625, 28,0.008568,0.000133,  29.198
   528.6,0.000937,0.000626, 28,0.008570,0.000156,  29.205
   528.8,0.000937,0.000626, 28,0.008586,0.000156,  29.204
   529.0,0.000940,0.000628, 28,0.008572,0.000133,  29.204
   529.2,0.000934,0.000631, 28,0.008549,0.000156,  29.200
   529.4,0.000934,0.000631, 28,0.008511,0.000156,  29.201
   529.6,0.000935,0.000637, 28,0.008512,0.000133,  29.200
   529.8,0.000935,0.000640, 28,0.008516,0.000156,  29.202
   530.0,0.000929,0.000634, 28,0.008532,0.000156,  29.203
   530.2,0.000929,0.000632, 28,0.008520,0.000133,  29.206
   530.4,0.000933,0.000630, 28,0.008518,0.000156,  29.199
   530.6,0.000929,0.000631, 28,0.008495,0.000156,  29.204
   530.8,0.000927,0.000632, 28,0.008476,0.000133,  29.205
   531.0,0.000930,0.000631, 28,0.008474,0.000156,  29.208
   531.2,0.000922,0.000626, 28,0.008460,0.000156,  29.203
   531.4,0.000917,0.000625, 28,0.008434,0.000133,  29.202
   531.6,0.000920,0.000625, 28,0.008416,0.000156,  29.207
   531.8,0.000917,0.000623, 28,0.008379,0.000156,  29.204
   532.0,0.000917,0.000621, 28,0.008367,0.000133,  29.207
   532.2,0.000925,0.000619, 28,0.008362,0.000156,  29.204
   532.4,0.000922,0.000621, 28,0.008357,0.000156,  29.210
   532.6,0.000922,0.000621, 28,0.008355,0.000133,  29.208
   532.8,0.000930,0.000615, 28,0.008373,0.000156,  29.209
   533.0,0.000924,0.000618, 28,0.008391,0.000156,  29.210
   533.2,0.000924,0.000617, 28,0.008349,0.000133,  29.207
   533.4,0.000930,0.000613, 28,0.008294,0.000156,  29.203
   533.6,0.000928,0.000616, 28,0.008220,0.000156,  29.206
   533.8,0.000929,0.000619, 28,0.008205,0.000133,  29.209
   534.0,0.000937,0.000620, 28,0.008199,0.000169,  29.207
   534.2,0.000931,0.000621, 28,0.008215,0.000169,  29.209
   534.4,0.000933,0.000624, 28,0.008242,0.000169,  29.212
   534.6,0.000933,0.000625, 28,0.008207,0.000169,  29.207
   534.8,0.000927,0.000624, 28,0.008166,0.000169,  29.211
   535.0,0.000933,0.000625, 28,0.008107,0.000169,  29.209
   535.2,0.000931,0.000626, 28,0.008021,0.000169,  29.209
   535.4,0.000926,0.000624, 28,0.007917,0.000169,  29.208
   535.6,0.000930,0.000630, 28,0.007782,0.000169,  29.210
   535.8,0.000930,0.000632, 28,0.007784,0.000169,  29.211
   536.0,0.000930,0.000628, 28,0.007844,0.000192,  29.211
   536.2,0.000925,0.000625, 28,0.007963,0.000192,  29.215
   536.4,0.000929,0.000619, 28,0.007967,0.000205,  29.208
   536.6,0.000926,0.000617, 28,0.007951,0.000192,  29.205
   536.8,0.000926,0.000621, 28,0.007898,0.000192,  29.208
   537.0,0.000926,0.000619, 28,0.007888,0.000205,  29.212
   537.2,0.000922,0.000617, 28,0.007897,0.000192,  29.208
   537.4,0.000925,0.000623, 28,0.007912,0.000192,  29.209
   537.6,0.000919,0.000627, 28,0.007898,0.000205,  29.210
   537.8,0.000921,0.000625, 28,0.007863,0.000192,  29.211
   538.0,0.000915,0.000625, 28,0.007837,0.000192,  29.215
   538.2,0.000915,0.000627, 28,0.007832,0.000169,  29.211
   538.4,0.000913,0.000627, 28,0.007841,0.000169,  29.214
   538.6,0.000907,0.000624, 28,0.007851,0.000169,  29.210
   538.8,0.000907,0.000625, 28,0.007837,0.000133,  29.211
   539.0,0.000913,0.000620, 28,0.007808,0.000156,  29.212
   539.2,0.000907,0.000620, 28,0.007762,0.000156,  29.210
   539.4,0.000909,0.000620, 28,0.007739,0.000133,  29.208
   539.6,0.000913,0.000616, 28,0.007724,0.000156,  29.208
   539.8,0.000907,0.000621, 28,0.007689,0.000156,  29.208
   540.0,0.000915,0.000625, 28,0.007645,0.000133,  29.210
   540.2,0.000919,0.000625, 28,0.007591,0.000156,  29.208
   540.4,0.000913,0.000624, 28,0.007528,0.000156,  29.209
   540.6,0.000921,0.000625, 28,0.007533,0.000119,  29.212
   540.8,0.000919,0.000627, 28,0.007573,0.000142,  29.210
   541.0,0.000913,0.000629, 28,0.007631,0.000142,  29.203
   541.2,0.000915,0.000631, 28,0.007643,0.000119,  29.207
   541.4,0.000913,0.000633, 28,0.007659,0.000156,  29.207
   541.6,0.000909,0.000634, 28,0.007659,0.000156,  29.210
   541.8,0.000912,0.000633, 28,0.007679,0.000133,  29.209
   542.0,0.000920,0.000633, 28,0.007724,0.000156,  29.203
   542.2,0.000914,0.000634, 28,0.007766,0.000142,  29.204
   542.4,0.000914,0.000629, 28,0.007768,0.000142,  29.203
   542.6,0.000918,0.000628, 28,0.007752,0.000165,  29.207
   542.8,0.000912,0.000629, 28,0.007715,0.000165,  29.207
   543.0,0.000920,0.000626, 28,0.007666,0.000165,  29.206
   543.2,0.000924,0.000621, 28,0.007644,0.000178,  29.204
   543.4,0.000920,0.000625, 28,0.007607,0.000178,  29.207
   543.6,0.000920,0.000628, 28,0.007570,0.000192,  29.204
   543.8,0.000914,0.000625, 28,0.007551,0.000142,  29.208
   544.0,0.000914,0.000630, 28,0.007546,0.000178,  29.202
   544.2,0.000912,0.000628, 28,0.007541,0.000192,  29.203
   544.4,0.000907,0.000625, 28,0.007556,0.000178,  29.205
   544.6,0.000907,0.000627, 28,0.007572,0.000178,  29.202
   544.8,0.000909,0.000629, 28,0.007595,0.000178,  29.207
   545.0,0.000915,0.000629, 28,0.007588,0.000178,  29.204
   545.2,0.000909,0.000623, 28,0.007558,0.000178,  29.203
   545.4,0.000912,0.000625, 28,0.007520,0.000178,  29.201
   545.6,0.000918,0.000626, 28,0.007504,0.000178,  29.204
   545.8,0.000912,0.000626, 28,0.007490,0.000178,  29.203
   546.0,0.000912,0.000626, 28,0.007464,0.000178,  29.201
   546.2,0.000915,0.000627, 28,0.007427,0.000178,  29.201
   546.4,0.000909,0.000627, 28,0.007390,0.000178,  29.203
   546.6,0.000907,0.000623, 28,0.007343,0.000178,  29.202
   546.8,0.000910,0.000623, 28,0.007313,0.000178,  29.200
   547.0,0.000910,0.000623, 28,0.007277,0.000178,  29.196
   547.2,0.000904,0.000619, 28,0.007252,0.000178,  29.203
   547.4,0.000910,0.000623, 28,0.007268,0.000178,  29.203
   547.6,0.000916,0.000619, 28,0.007294,0.000178,  29.206
   547.8,0.000910,0.000619, 28,0.007336,0.000178,  29.204
   548.0,0.000916,0.000619, 28,0.007317,0.000178,  29.204
   548.2,0.000916,0.000614, 28,0.007287,0.000178,  29.205
   548.4,0.000910,0.000620, 28,0.007238,0.000178,  29.198
   548.6,0.000916,0.000620, 28,0.007196,0.000178,  29.202
   548.8,0.000916,0.000619, 28,0.007167,0.000178,  29.199
   549.0,0.000909,0.000621, 28,0.007128,0.000178,  29.200
   549.2,0.000907,0.000620, 28,0.007106,0.000178,  29.199
   549.4,0.000909,0.000622, 28,0.007099,0.000178,  29.196
   549.6,0.000901,0.000619, 28,0.007085,0.000178,  29.200
   549.8,0.000903,0.000623, 28,0.007060,0.000178,  29.196
   550.0,0.000908,0.000620, 28,0.007030,0.000178,  29.200
   550.2,0.000905,0.000622, 28,0.006985,0.000178,  29.195
   550.4,0.000907,0.000622, 28,0.007011,0.000156,  29.195
   550.6,0.000899,0.000618, 28,0.007069,0.000156,  29.204
   550.8,0.000895,0.000620, 28,0.007150,0.000156,  29.201
   551.0,0.000901,0.000619, 28,0.007183,0.000133,  29.198
   551.2,0.000904,0.000615, 28,0.007206,0.000156,  29.195
   551.4,0.000900,0.000614, 28,0.007207,0.000156,  29.195
   551.6,0.000906,0.000615, 28,0.007199,0.000133,  29.198
   551.8,0.000906,0.000615, 28,0.007162,0.000156,  29.192
   552.0,0.000903,0.000612, 28,0.007108,0.000156,  29.194
   552.2,0.000905,0.000614, 28,0.007038,0.000156,  29.188
   552.4,0.000905,0.000616, 28,0.007048,0.000169,  29.186
   552.6,0.000902,0.000615, 28,0.007082,0.000156,  29.186
   552.8,0.000902,0.000614, 28,0.007138,0.000169,  29.186
   553.0,0.000905,0.000611, 28,0.007117,0.000156,  29.187
   553.2,0.000902,0.000615, 28,0.007078,0.000142,  29.185
   553.4,0.000897,0.000619, 28,0.007015,0.000142,  29.183
   553.6,0.000898,0.000622, 28,0.006996,0.000106,  29.184
   553.8,0.000894,0.000620, 28,0.007003,0.000142,  29.187
   554.0,0.000892,0.000620, 28,0.007019,0.000142,  29.185
   554.2,0.000898,0.000620, 28,0.007005,0.000106,  29.178
   554.4,0.000892,0.000614, 28,0.006984,0.000142,  29.182
   554.6,0.000892,0.000616, 28,0.006952,0.000142,  29.181
   554.8,0.000895,0.000617, 28,0.006954,0.000106,  29.183
   555.0,0.000892,0.000613, 28,0.006965,0.000142,  29.184
   555.2,0.000892,0.000609, 28,0.006996,0.000129,  29.181
   555.4,0.000898,0.000608, 28,0.006968,0.000093,  29.185
   555.6,0.000898,0.000608, 28,0.006921,0.000129,  29.186
   555.8,0.000892,0.000604, 28,0.006849,0.000129,  29.185
   556.0,0.000892,0.000606, 28,0.006820,0.000093,  29.183
   556.2,0.000898,0.000606, 28,0.006799,0.000142,  29.185
   556.4,0.000894,0.000604, 28,0.006792,0.000142,  29.177
   556.6,0.000892,0.000608, 28,0.006739,0.000106,  29.186
   556.8,0.000898,0.000606, 28,0.006671,0.000129,  29.183
   557.0,0.000892,0.000607, 28,0.006593,0.000116,  29.185
   557.2,0.000901,0.000607, 28,0.006595,0.000080,  29.180
   557.4,0.000911,0.000607, 28,0.006630,0.000129,  29.185
   557.6,0.000907,0.000611, 28,0.006701,0.000129,  29.182
   557.8,0.000901,0.000614, 28,0.006694,0.000093,  29.183
   558.0,0.000898,0.000614, 28,0.006658,0.000129,  29.184
   558.2,0.000892,0.000614, 28,0.006602,0.000129,  29.186
   558.4,0.000898,0.000618, 28,0.006603,0.000093,  29.184
   558.6,0.000901,0.000618, 28,0.006614,0.000129,  29.188
   558.8,0.000895,0.000618, 28,0.006638,0.000142,  29.184
   559.0,0.000904,0.000621, 28,0.006602,0.000106,  29.184
   559.2,0.000901,0.000623, 28,0.006532,0.000142,  29.185
   559.4,0.000898,0.000625, 28,0.006443,0.000156,  29.184
   559.6,0.000906,0.000626, 28,0.006422,0.000119,  29.180
   559.8,0.000906,0.000628, 28,0.006424,0.000142,  29.186
   560.0,0.000904,0.000626, 28,0.006462,0.000142,  29.184
   560.2,0.000911,0.000623, 28,0.006511,0.000106,  29.187
   560.4,0.000913,0.000621, 28,0.006530,0.000142,  29.184
   560.6,0.000909,0.000621, 28,0.006546,0.000142,  29.189
   560.8,0.000912,0.000615, 28,0.006569,0.000156,  29.187
   561.0,0.000908,0.000617, 28,0.006555,0.000142,  29.187
   561.2,0.000905,0.000619, 28,0.006511,0.000142,  29.188
   561.4,0.000910,0.000620, 28,0.006464,0.000156,  29.188
   561.6,0.000907,0.000622, 28,0.006480,0.000142,  29.191
   561.8,0.000904,0.000623, 28,0.006506,0.000129,  29.195
   562.0,0.000906,0.000621, 28,0.006562,0.000116,  29.197
   562.2,0.000909,0.000620, 28,0.006326,0.000080,  29.198
   562.4,0.000905,0.000617, 28,0.005959,0.000129,  29.199
   562.6,0.000909,0.000619, 28,0.005464,0.000129,  29.195
   562.8,0.000909,0.000620, 28,0.005428,0.000093,  29.201
   563.0,0.000905,0.000620, 28,0.005558,0.000129,  29.195
   563.2,0.000905,0.000620, 28,0.005849,0.000142,  29.197
   563.4,0.000908,0.000620, 28,0.005912,0.000106,  29.200
   563.6,0.000904,0.000622, 28,0.005955,0.000142,  29.204
   563.8,0.000907,0.000622, 28,0.005955,0.000156,  29.203
   564.0,0.000913,0.000624, 28,0.006018,0.000119,  29.203
   564.2,0.000913,0.000628, 28,0.006096,0.000142,  29.199
   564.4,0.000907,0.000623, 28,0.006183,0.000142,  29.200
   564.6,0.000904,0.000625, 28,0.006190,0.000106,  29.205
   564.8,0.000908,0.000627, 28,0.006166,0.000142,  29.206
   565.0,0.000899,0.000628, 28,0.006096,0.000142,  29.203
   565.2,0.000899,0.000627, 28,0.006121,0.000106,  29.206
   565.4,0.000908,0.000629, 28,0.006163,0.000142,  29.205
   565.6,0.000902,0.000628, 28,0.006239,0.000142,  29.207
   565.8,0.000899,0.000628, 28,0.006250,0.000106,  29.203
   566.0,0.000900,0.000622, 28,0.006250,0.000142,  29.202
   566.2,0.000897,0.000622, 28,0.006227,0.000142,  29.206
   566.4,0.000894,0.000622, 28,0.006246,0.000106,  29.203
   566.6,0.000898,0.000620, 28,0.006286,0.000142,  29.207
   566.8,0.000894,0.000620, 28,0.006328,0.000142,  29.202
   567.0,0.000894,0.000622, 28,0.006339,0.000106,  29.205
   567.2,0.000900,0.000618, 28,0.006339,0.000142,  29.207
   567.4,0.000897,0.000617, 28,0.006323,0.000142,  29.207
   567.6,0.000897,0.000620, 28,0.006349,0.000106,  29.207
   567.8,0.000900,0.000618, 28,0.006376,0.000142,  29.210
   568.0,0.000894,0.000615, 28,0.006411,0.000129,  29.210
   568.2,0.000894,0.000618, 28,0.006397,0.000093,  29.209
   568.4,0.000895,0.000618, 28,0.006370,0.000129,  29.208
   568.6,0.000889,0.000614, 28,0.006318,0.000129,  29.208
   568.8,0.000898,0.000616, 28,0.006318,0.000093,  29.210
   569.0,0.000901,0.000611, 28,0.006334,0.000142,  29.208
   569.2,0.000895,0.000613, 28,0.006365,0.000178,  29.206
   569.4,0.000904,0.000615, 28,0.006412,0.000156,  29.207
   569.6,0.000901,0.000613, 28,0.006383,0.000178,  29.208
   569.8,0.000898,0.000613, 28,0.006327,0.000178,  29.209
   570.0,0.000906,0.000611, 28,0.006243,0.000192,  29.210
   570.2,0.000906,0.000613, 28,0.006238,0.000178,  29.209
   570.4,0.000903,0.000609, 28,0.006257,0.000178,  29.206
   570.6,0.000909,0.000614, 28,0.006299,0.000178,  29.207
   570.8,0.000906,0.000614, 28,0.006271,0.000178,  29.206
   571.0,0.000903,0.000616, 28,0.006219,0.000178,  29.207
   571.2,0.000905,0.000609, 28,0.006154,0.000178,  29.210
   571.4,0.000899,0.000611, 28,0.006156,0.000178,  29.209
   571.6,0.000904,0.000608, 28,0.006174,0.000178,  29.212
   571.8,0.000904,0.000612, 28,0.006214,0.000178,  29.212
   572.0,0.000904,0.000620, 28,0.006208,0.000178,  29.211
   572.2,0.000907,0.000617, 28,0.006195,0.000178,  29.213
   572.4,0.000907,0.000622, 28,0.006184,0.000178,  29.213
   572.6,0.000910,0.000620, 28,0.006175,0.000178,  29.209
   572.8,0.000904,0.000618, 28,0.006154,0.000178,  29.209
   573.0,0.000907,0.000622, 28,0.006139,0.000178,  29.207
   573.2,0.000909,0.000624, 28,0.006062,0.000178,  29.207
   573.4,0.000909,0.000621, 28,0.005954,0.000178,  29.214
   573.6,0.000909,0.000623, 28,0.005802,0.000178,  29.214
   573.8,0.000909,0.000627, 28,0.005773,0.000178,  29.215
   574.0,0.000913,0.000627, 28,0.005783,0.000178,  29.211
   574.2,0.000907,0.000628, 28,0.005850,0.000178,  29.213
   574.4,0.000907,0.000635, 28,0.005850,0.000178,  29.210
   574.6,0.000913,0.000637, 28,0.005841,0.000178,  29.214
   574.8,0.000907,0.000634, 28,0.005823,0.000178,  29.211
   575.0,0.000909,0.000637, 28,0.005855,0.000178,  29.208
   575.2,0.000915,0.000634, 28,0.005902,0.000178,  29.210
   575.4,0.000909,0.000631, 28,0.005964,0.000178,  29.216
   575.6,0.000915,0.000628, 28,0.005987,0.000178,  29.212
   575.8,0.000921,0.000626, 28,0.005987,0.000178,  29.211
   576.0,0.000915,0.000625, 28,0.005971,0.000178,  29.215
   576.2,0.000921,0.000631, 28,0.006003,0.000178,  29.211
   576.4,0.000919,0.000629, 28,0.006036,0.000178,  29.215
   576.6,0.000913,0.000634, 28,0.006078,0.000178,  29.212
   576.8,0.000919,0.000639, 28,0.006060,0.000192,  29.211
   577.0,0.000916,0.000639, 28,0.006012,0.000192,  29.208
   577.2,0.000913,0.000632, 28,0.005917,0.000192,  29.211
   577.4,0.000921,0.000634, 28,0.005910,0.000205,  29.212
   577.6,0.000926,0.000632, 28,0.005928,0.000192,  29.211
   577.8,0.000923,0.000631, 28,0.005970,0.000192,  29.207
   578.0,0.000926,0.000632, 28,0.006034,0.000205,  29.207
   578.2,0.000926,0.000634, 28,0.006029,0.000192,  29.212
   578.4,0.000923,0.000633, 28,0.006001,0.000192,  29.211
   578.6,0.000929,0.000633, 28,0.005982,0.000192,  29.214
   578.8,0.000929,0.000634, 28,0.005954,0.000169,  29.209
   579.0,0.000925,0.000637, 28,0.005928,0.000192,  29.206
   579.2,0.000931,0.000636, 28,0.005895,0.000205,  29.211
   579.4,0.000929,0.000635, 28,0.005764,0.000205,  29.212
   579.6,0.000923,0.000639, 28,0.005568,0.000192,  29.212
   579.8,0.000923,0.000637, 28,0.005324,0.000192,  29.212
   580.0,0.000918,0.000635, 28,0.005324,0.000205,  29.213
   580.2,0.000912,0.000639, 28,0.005423,0.000192,  29.214
   580.4,0.000912,0.000634, 28,0.005609,0.000192,  29.213
   580.6,0.000915,0.000636, 28,0.005642,0.000205,  29.212
   580.8,0.000909,0.000640, 28,0.005655,0.000192,  29.210
   581.0,0.000909,0.000638, 28,0.005644,0.000192,  29.207
   581.2,0.000913,0.000634, 28,0.005677,0.000205,  29.208
   581.4,0.000907,0.000634, 28,0.005716,0.000192,  29.211
   581.6,0.000909,0.000636, 28,0.005763,0.000192,  29.212
   581.8,0.000915,0.000635, 28,0.005735,0.000192,  29.215
   582.0,0.000909,0.000635, 28,0.005688,0.000178,  29.213
   582.2,0.000909,0.000637, 28,0.005615,0.000165,  29.211
   582.4,0.000913,0.000636, 28,0.005627,0.000165,  29.210
   582.6,0.000913,0.000634, 28,0.005683,0.000165,  29.207
   582.8,0.000909,0.000633, 28,0.005784,0.000152,  29.208
   583.0,0.000907,0.000634, 28,0.005839,0.000152,  29.210
   583.2,0.000915,0.000632, 28,0.005867,0.000165,  29.211
   583.4,0.000907,0.000636, 28,0.005906,0.000165,  29.210
   583.6,0.000904,0.000639, 28,0.005913,0.000165,  29.210
   583.8,0.000908,0.000634, 28,0.005890,0.000165,  29.205
   584.0,0.000899,0.000636, 28,0.005843,0.000165,  29.206
   584.2,0.000900,0.000636, 28,0.005829,0.000165,  29.207
   584.4,0.000910,0.000630, 28,0.005829,0.000165,  29.209
   584.6,0.000906,0.000633, 28,0.005824,0.000201,  29.214
   584.8,0.000906,0.000633, 28,0.005820,0.000188,  29.207
   585.0,0.000915,0.000631, 28,0.005822,0.000175,  29.211
   585.2,0.000911,0.000633, 28,0.005843,0.000188,  29.212
   585.4,0.000911,0.000634, 28,0.005721,0.000175,  29.207
   585.6,0.000911,0.000634, 28,0.005524,0.000139,  29.210
   585.8,0.000908,0.000633, 28,0.005269,0.000116,  29.210
   586.0,0.000914,0.000632, 28,0.005208,0.000116,  29.210
   586.2,0.000911,0.000630, 28,0.005218,0.000152,  29.208
   586.4,0.000910,0.000629, 28,0.005295,0.000165,  29.205
   586.6,0.000919,0.000633, 28,0.005439,0.000165,  29.213
   586.8,0.000921,0.000630, 28,0.005457,0.000152,  29.210
   587.0,0.000920,0.000632, 28,0.005472,0.000152,  29.211
   587.2,0.000920,0.000633, 28,0.005484,0.000165,  29.210
   587.4,0.000920,0.000629, 28,0.005486,0.000116,  29.210
   587.6,0.000917,0.000631, 28,0.005488,0.000165,  29.207
   587.8,0.000914,0.000637, 28,0.005491,0.000178,  29.207
   588.0,0.000920,0.000636, 28,0.005217,0.000178,  29.202
   588.2,0.000917,0.000634, 28,0.004800,0.000165,  29.202
   588.4,0.000917,0.000638, 28,0.004250,0.000165,  29.199
   588.6,0.000925,0.000641, 28,0.004273,0.000165,  29.204
   588.8,0.000922,0.000639, 28,0.004498,0.000165,  29.200
   589.0,0.000917,0.000644, 28,0.004954,0.000165,  29.203
   589.2,0.000920,0.000644, 28,0.005100,0.000165,  29.209
   589.4,0.000917,0.000643, 28,0.005194,0.000165,  29.212
   589.6,0.000917,0.000644, 28,0.005253,0.000178,  29.211
   589.8,0.000919,0.000645, 28,0.005345,0.000178,  29.208
   590.0,0.000922,0.000643, 28,0.005418,0.000178,  29.208
   590.2,0.000919,0.000643, 28,0.005495,0.000192,  29.209
   590.4,0.000919,0.000643, 28,0.005544,0.000192,  29.211
   590.6,0.000922,0.000640, 28,0.005577,0.000178,  29.212
   590.8,0.000919,0.000644, 28,0.005587,0.000178,  29.208
   591.0,0.000925,0.000644, 28,0.005566,0.000178,  29.212
   591.2,0.000928,0.000640, 28,0.005531,0.000178,  29.210
   591.4,0.000919,0.000643, 28,0.005464,0.000178,  29.213
   591.6,0.000924,0.000641, 28,0.005450,0.000192,  29.214
   591.8,0.000928,0.000640, 28,0.005457,0.000192,  29.217
   592.0,0.000922,0.000638, 28,0.005484,0.000192,  29.214
   592.2,0.000919,0.000638, 28,0.005571,0.000205,  29.216
   592.4,0.000925,0.000637, 28,0.005704,0.000192,  29.218
   592.6,0.000924,0.000641, 28,0.005874,0.000192,  29.215
   592.8,0.000924,0.000641, 28,0.005876,0.000205,  29.214
   593.0,0.000933,0.000641, 28,0.005807,0.000192,  29.215
   593.2,0.000929,0.000643, 28,0.005674,0.000178,  29.216
   593.4,0.000932,0.000646, 28,0.005629,0.000178,  29.218
   593.6,0.000935,0.000646, 28,0.005584,0.000165,  29.218
   593.8,0.000929,0.000643, 28,0.005547,0.000165,  29.221
   594.0,0.000932,0.000650, 28,0.005500,0.000165,  29.217
   594.2,0.000938,0.000653, 28,0.005451,0.000178,  29.219
   594.4,0.000932,0.000653, 28,0.005396,0.000192,  29.220
   594.6,0.000932,0.000659, 28,0.005389,0.000205,  29.221
   594.8,0.000929,0.000659, 28,0.005404,0.000192,  29.218
   595.0,0.000929,0.000653, 28,0.005444,0.000192,  29.220
   595.2,0.000932,0.000652, 28,0.005467,0.000205,  29.224
   595.4,0.000932,0.000653, 28,0.005493,0.000192,  29.218
   595.6,0.000932,0.000651, 28,0.005535,0.000192,  29.226
   595.8,0.000929,0.000654, 28,0.005566,0.000192,  29.221
   596.0,0.000927,0.000655, 28,0.005537,0.000156,  29.222
   596.2,0.000927,0.000654, 28,0.005481,0.000178,  29.225
   596.4,0.000927,0.000656, 28,0.005401,0.000192,  29.225
   596.6,0.000927,0.000657, 28,0.005330,0.000178,  29.225
   596.8,0.000921,0.000662, 28,0.005239,0.000178,  29.222
   597.0,0.000926,0.000663, 28,0.005158,0.000178,  29.230
   597.2,0.000928,0.000661, 28,0.005189,0.000178,  29.231
   597.4,0.000928,0.000658, 28,0.005262,0.000178,  29.232
   597.6,0.000928,0.000655, 28,0.005401,0.000178,  29.229
   597.8,0.000932,0.000655, 28,0.005465,0.000178,  29.227
   598.0,0.000940,0.000656, 28,0.005528,0.000178,  29.228
   598.2,0.000940,0.000658, 28,0.005582,0.000178,  29.229
   598.4,0.000937,0.000658, 28,0.005606,0.000178,  29.230
   598.6,0.000939,0.000657, 28,0.005611,0.000178,  29.230
   598.8,0.000937,0.000654, 28,0.005582,0.000165,  29.229
   599.0,0.000937,0.000654, 28,0.005566,0.000165,  29.231
   599.2,0.000939,0.000649, 28,0.005528,0.000165,  29.234
   599.4,0.000939,0.000644, 28,0.005476,0.000165,  29.234
   599.6,0.000939,0.000650, 28,0.005484,0.000165,  29.231
   599.8,0.000939,0.000647, 28,0.005514,0.000178,  29.232
   600.0,0.000944,0.000648, 28,0.005554,0.000192,  29.230
   600.2,0.000944,0.000649, 28,0.005533,0.000192,  29.230
   600.4,0.000944,0.000647, 28,0.005493,0.000178,  29.231
   600.6,0.000947,0.000648, 28,0.005422,0.000178,  29.227
   600.8,0.000947,0.000647, 28,0.005438,0.000178,  29.227
   601.0,0.000950,0.000649, 28,0.005476,0.000178,  29.226
   601.2,0.000948,0.000650, 28,0.005544,0.000178,  29.233
   601.4,0.000956,0.000654, 28,0.005544,0.000178,  29.228
   601.6,0.000965,0.000654, 28,0.005521,0.000178,  29.230
   601.8,0.000964,0.000655, 28,0.005474,0.000178,  29.228
   602.0,0.000963,0.000660, 28,0.005453,0.000178,  29.227
   602.2,0.000961,0.000662, 28,0.005444,0.000178,  29.233
   602.4,0.000960,0.000661, 28,0.005436,0.000178,  29.227
   602.6,0.000962,0.000660, 28,0.005337,0.000178,  29.229
   602.8,0.000956,0.000660, 28,0.005177,0.000178,  29.229
   603.0,0.000953,0.000660, 28,0.004977,0.000178,  29.228
   603.2,0.000956,0.000660, 28,0.004999,0.000178,  29.231
   603.4,0.000954,0.000660, 28,0.005093,0.000178,  29.227
   603.6,0.000950,0.000662, 28,0.005272,0.000178,  29.229
   603.8,0.000950,0.000664, 28,0.005318,0.000192,  29.231
   604.0,0.000950,0.000661, 28,0.005328,0.000192,  29.227
   604.2,0.000947,0.000661, 28,0.005324,0.000192,  29.230
   604.4,0.000947,0.000660, 28,0.005284,0.000205,  29.226
   604.6,0.000953,0.000658, 28,0.005331,0.000169,  29.229
   604.8,0.000947,0.000658, 28,0.005394,0.000192,  29.223
   605.0,0.000947,0.000662, 28,0.005474,0.000205,  29.225
   605.2,0.000953,0.000658, 28,0.005498,0.000205,  29.225
   605.4,0.000950,0.000658, 28,0.005498,0.000192,  29.222
   605.6,0.000950,0.000660, 28,0.005481,0.000192,  29.225
   605.8,0.000955,0.000660, 28,0.005099,0.000205,  29.229
   606.0,0.000952,0.000662, 28,0.004512,0.000192,  29.224
   606.2,0.000952,0.000665, 28,0.003729,0.000192,  29.228
   606.4,0.000950,0.000664, 28,0.003721,0.000192,  29.224
   606.6,0.000950,0.000668, 28,0.003987,0.000178,  29.222
   606.8,0.000955,0.000665, 28,0.004543,0.000178,  29.227
   607.0,0.000957,0.000667, 28,0.004710,0.000178,  29.223
   607.2,0.000954,0.000669, 28,0.004829,0.000178,  29.223
   607.4,0.000959,0.000670, 28,0.004883,0.000178,  29.226
   607.6,0.000964,0.000669, 28,0.004977,0.000178,  29.225
   607.8,0.000958,0.000668, 28,0.005067,0.000178,  29.222
   608.0,0.000958,0.000670, 28,0.005149,0.000178,  29.223
   608.2,0.000961,0.000667, 28,0.005212,0.000178,  29.225
   608.4,0.000964,0.000666, 28,0.005260,0.000178,  29.221
   608.6,0.000964,0.000670, 28,0.005291,0.000178,  29.223
   608.8,0.000966,0.000671, 28,0.005345,0.000178,  29.219
   609.0,0.000969,0.000671, 28,0.005394,0.000178,  29.217
   609.2,0.000971,0.000669, 28,0.005455,0.000178,  29.220
   609.4,0.000969,0.000670, 28,0.005438,0.000178,  29.221
   609.6,0.000966,0.000666, 28,0.005368,0.000178,  29.217
   609.8,0.000970,0.000667, 28,0.005272,0.000178,  29.219
   610.0,0.000967,0.000671, 28,0.005295,0.000178,  29.219
   610.2,0.000965,0.000672, 28,0.005344,0.000178,  29.217
   610.4,0.000970,0.000673, 28,0.005425,0.000178,  29.217
   610.6,0.000968,0.000673, 28,0.005427,0.000178,  29.217
   610.8,0.000970,0.000671, 28,0.005410,0.000178,  29.214
   611.0,0.000967,0.000671, 28,0.005359,0.000201,  29.216
   611.2,0.000965,0.000675, 28,0.005345,0.000201,  29.218
   611.4,0.000962,0.000674, 28,0.005344,0.000201,  29.215
   611.6,0.000965,0.000672, 28,0.005344,0.000188,  29.217
   611.8,0.000967,0.000671, 28,0.005354,0.000188,  29.218
   612.0,0.000973,0.000670, 28,0.005372,0.000165,  29.215
   612.2,0.000970,0.000669, 28,0.005396,0.000142,  29.219
   612.4,0.000970,0.000671, 28,0.005412,0.000142,  29.217
   612.6,0.000973,0.000669, 28,0.005422,0.000178,  29.215
   612.8,0.000970,0.000664, 28,0.005434,0.000215,  29.213
   613.0,0.000970,0.000664, 28,0.005436,0.000215,  29.214
   613.2,0.000976,0.000664, 28,0.005457,0.000188,  29.207
   613.4,0.000970,0.000667, 28,0.005445,0.000188,  29.211
   613.6,0.000970,0.000669, 28,0.005452,0.000201,  29.209
   613.8,0.000976,0.000669, 28,0.005474,0.000152,  29.208
   614.0,0.000970,0.000674, 28,0.005497,0.000165,  29.211
   614.2,0.000976,0.000672, 28,0.005521,0.000178,  29.211
   614.4,0.000979,0.000670, 28,0.005519,0.000178,  29.213
   614.6,0.000978,0.000676, 28,0.005490,0.000165,  29.208
   614.8,0.000984,0.000680, 28,0.005455,0.000165,  29.213
   615.0,0.000984,0.000681, 28,0.005446,0.000165,  29.209
   615.2,0.000981,0.000683, 28,0.005432,0.000165,  29.215
   615.4,0.000983,0.000681, 28,0.005432,0.000165,  29.216
   615.6,0.000981,0.000681, 28,0.005441,0.000165,  29.220
   615.8,0.000977,0.000675, 28,0.005464,0.000165,  29.215
   616.0,0.000980,0.000678, 28,0.005481,0.000165,  29.220
   616.2,0.000988,0.000680, 28,0.005465,0.000165,  29.218
   616.4,0.000985,0.000678, 28,0.005439,0.000165,  29.218
   616.6,0.000985,0.000680, 28,0.005378,0.000165,  29.223
   616.8,0.000993,0.000687, 28,0.005356,0.000165,  29.220
   617.0,0.000993,0.000685, 28,0.005347,0.000165,  29.219
   617.2,0.000990,0.000683, 28,0.005338,0.000165,  29.221
   617.4,0.000990,0.000687, 28,0.005342,0.000165,  29.217
   617.6,0.000996,0.000686, 28,0.005366,0.000165,  29.223
   617.8,0.000992,0.000686, 28,0.005405,0.000165,  29.221
   618.0,0.000990,0.000691, 28,0.005429,0.000165,  29.225
   618.2,0.000996,0.000689, 28,0.005457,0.000165,  29.220
   618.4,0.000992,0.000690, 28,0.005478,0.000178,  29.224
   618.6,0.000990,0.000692, 28,0.005485,0.000178,  29.221
   618.8,0.000991,0.000689, 28,0.005478,0.000178,  29.221
   619.0,0.000987,0.000689, 28,0.005455,0.000192,  29.225
   619.2,0.000987,0.000686, 28,0.005457,0.000192,  29.221
   619.4,0.000993,0.000681, 28,0.005459,0.000178,  29.223
   619.6,0.000990,0.000683, 28,0.005479,0.000178,  29.221
   619.8,0.000990,0.000681, 28,0.005448,0.000178,  29.225
   620.0,0.000996,0.000680, 28,0.005392,0.000178,  29.228
   620.2,0.000992,0.000684, 28,0.005312,0.000178,  29.229
   620.4,0.000996,0.000687, 28,0.005337,0.000178,  29.228
   620.6,0.000997,0.000685, 28,0.005406,0.000178,  29.228
   620.8,0.000993,0.000687, 28,0.005509,0.000178,  29.223
   621.0,0.000993,0.000688, 28,0.005526,0.000178,  29.230
   621.2,0.000991,0.000686, 28,0.005516,0.000178,  29.233
   621.4,0.000987,0.000690, 28,0.005471,0.000178,  29.231
   621.6,0.000987,0.000686, 28,0.005478,0.000178,  29.237
   621.8,0.000991,0.000682, 28,0.005481,0.000178,  29.238
   622.0,0.000987,0.000688, 28,0.005504,0.000178,  29.238
   622.2,0.000987,0.000688, 28,0.005521,0.000192,  29.241
   622.4,0.000991,0.000684, 28,0.005523,0.000129,  29.237
   622.6,0.000987,0.000686, 28,0.005519,0.000165,  29.240
   622.8,0.000990,0.000686, 28,0.005504,0.000178,  29.240
   623.0,0.000998,0.000685, 28,0.005512,0.000178,  29.240
   623.2,0.000995,0.000685, 28,0.005519,0.000165,  29.240
   623.4,0.000997,0.000689, 28,0.005535,0.000165,  29.243
   623.6,0.001003,0.000688, 28,0.005526,0.000165,  29.242
   623.8,0.001000,0.000695, 28,0.005488,0.000165,  29.240
   624.0,0.001000,0.000691, 28,0.005446,0.000178,  29.239
   624.2,0.001001,0.000697, 28,0.005462,0.000178,  29.240
   624.4,0.000995,0.000699, 28,0.005493,0.000178,  29.232
   624.6,0.000995,0.000704, 28,0.005542,0.000192,  29.240
   624.8,0.001001,0.000700, 28,0.005540,0.000192,  29.237
   625.0,0.000995,0.000699, 28,0.005504,0.000178,  29.230
   625.2,0.000997,0.000695, 28,0.005455,0.000178,  29.232
   625.4,0.001003,0.000693, 28,0.005431,0.000178,  29.232
   625.6,0.001003,0.000689, 28,0.005399,0.000178,  29.226
   625.8,0.001000,0.000686, 28,0.005375,0.000178,  29.233
   626.0,0.001002,0.000688, 28,0.005378,0.000178,  29.228
   626.2,0.001013,0.000687, 28,0.005410,0.000178,  29.227
   626.4,0.001007,0.000691, 28,0.005452,0.000178,  29.228
   626.6,0.001007,0.000693, 28,0.005459,0.000156,  29.230
   626.8,0.001013,0.000693, 28,0.005434,0.000156,  29.227
   627.0,0.001010,0.000689, 28,0.005399,0.000156,  29.225
   627.2,0.001010,0.000692, 28,0.005422,0.000133,  29.227
   627.4,0.001013,0.000692, 28,0.005446,0.000156,  29.223
   627.6,0.001010,0.000691, 28,0.005488,0.000156,  29.224
   627.8,0.001010,0.000692, 28,0.005514,0.000133,  29.222
   628.0,0.001007,0.000688, 28,0.005544,0.000156,  29.217
   628.2,0.001010,0.000692, 28,0.005573,0.000156,  29.215
   628.4,0.001010,0.000689, 28,0.005591,0.000133,  29.214
   628.6,0.001010,0.000684, 28,0.005606,0.000156,  29.209
   628.8,0.001012,0.000689, 28,0.005615,0.000156,  29.213
   629.0,0.001010,0.000693, 28,0.005594,0.000133,  29.211
   629.2,0.001010,0.000693, 28,0.005568,0.000156,  29.214
   629.4,0.001012,0.000694, 28,0.005514,0.000156,  29.212
   629.6,0.001012,0.000695, 28,0.005499,0.000133,  29.207
   629.8,0.001012,0.000697, 28,0.005499,0.000156,  29.210
   630.0,0.001015,0.000697, 28,0.005492,0.000156,  29.213
   630.2,0.001012,0.000697, 28,0.005512,0.000133,  29.213
   630.4,0.001010,0.000696, 28,0.005465,0.000156,  29.209
   630.6,0.001015,0.000695, 28,0.005401,0.000156,  29.214
   630.8,0.001017,0.000697, 28,0.005319,0.000156,  29.209
   631.0,0.001020,0.000695, 28,0.005312,0.000169,  29.209
   631.2,0.001022,0.000697, 28,0.005330,0.000156,  29.210
   631.4,0.001022,0.000699, 28,0.005384,0.000169,  29.210
   631.6,0.001017,0.000697, 28,0.005408,0.000169,  29.209
   631.8,0.001015,0.000699, 28,0.005432,0.000156,  29.208
   632.0,0.001015,0.000698, 28,0.005455,0.000156,  29.211
   632.2,0.001015,0.000698, 28,0.005448,0.000133,  29.215
   632.4,0.001015,0.000697, 28,0.005418,0.000156,  29.213
   632.6,0.001017,0.000702, 28,0.005385,0.000156,  29.213
   632.8,0.001020,0.000703, 28,0.005385,0.000133,  29.209
   633.0,0.001022,0.000697, 28,0.005387,0.000156,  29.214
   633.2,0.001025,0.000702, 28,0.005403,0.000156,  29.212
   633.4,0.001020,0.000701, 28,0.005396,0.000119,  29.211
   633.6,0.001020,0.000701, 28,0.005380,0.000142,  29.211
   633.8,0.001025,0.000701, 28,0.005368,0.000142,  29.211
   634.0,0.001025,0.000705, 28,0.005408,0.000106,  29.213
   634.2,0.001027,0.000703, 28,0.005462,0.000142,  29.214
   634.4,0.001027,0.000702, 28,0.005535,0.000142,  29.211
   634.6,0.001030,0.000706, 28,0.005519,0.000106,  29.212
   634.8,0.001027,0.000703, 28,0.005459,0.000142,  29.213
   635.0,0.001027,0.000706, 28,0.005363,0.000142,  29.210
   635.2,0.001027,0.000708, 28,0.005232,0.000106,  29.216
   635.4,0.001027,0.000708, 28,0.005055,0.000142,  29.211
   635.6,0.001030,0.000709, 28,0.004835,0.000142,  29.214
   635.8,0.001030,0.000709, 28,0.004836,0.000106,  29.215
   636.0,0.001032,0.000709, 28,0.004934,0.000142,  29.219
   636.2,0.001035,0.000711, 28,0.005116,0.000142,  29.212
   636.4,0.001032,0.000716, 28,0.005185,0.000106,  29.216
   636.6,0.001030,0.000714, 28,0.005246,0.000142,  29.217
   636.8,0.001032,0.000715, 28,0.005298,0.000142,  29.219
   637.0,0.001030,0.000721, 28,0.005358,0.000106,  29.220
   637.2,0.001033,0.000723, 28,0.005403,0.000142,  29.219
   637.4,0.001030,0.000719, 28,0.005434,0.000142,  29.221
   637.6,0.001030,0.000721, 28,0.005441,0.000106,  29.217
   637.8,0.001036,0.000721, 28,0.005438,0.000142,  29.221
   638.0,0.001032,0.000721, 28,0.005406,0.000142,  29.221
   638.2,0.001032,0.000723, 28,0.005406,0.000106,  29.222
   638.4,0.001036,0.000728, 28,0.005408,0.000142,  29.228
   638.6,0.001032,0.000725, 28,0.005422,0.000142,  29.226
   638.8,0.001032,0.000727, 28,0.005432,0.000106,  29.225
   639.0,0.001036,0.000727, 28,0.005460,0.000142,  29.227
   639.2,0.001032,0.000724, 28,0.005514,0.000142,  29.228
   639.4,0.001032,0.000726, 28,0.005575,0.000156,  29.228
   639.6,0.001038,0.000724, 28,0.005601,0.000142,  29.229
   639.8,0.001037,0.000721, 28,0.005624,0.000142,  29.230
   640.0,0.001040,0.000723, 28,0.005626,0.000156,  29.231
   640.2,0.001048,0.000720, 28,0.005620,0.000142,  29.231
   640.4,0.001045,0.000720, 28,0.005605,0.000142,  29.225
   640.6,0.001050,0.000722, 28,0.005587,0.000142,  29.225
   640.8,0.001053,0.000724, 28,0.005594,0.000119,  29.231
   641.0,0.001047,0.000720, 28,0.005603,0.000156,  29.231
   641.2,0.001050,0.000720, 28,0.005631,0.000156,  29.230
   641.4,0.001053,0.000720, 28,0.005631,0.000133,  29.233
   641.6,0.001047,0.000718, 28,0.005629,0.000156,  29.231
   641.8,0.001047,0.000718, 28,0.005619,0.000156,  29.227
   642.0,0.001051,0.000722, 28,0.005625,0.000119,  29.227
   642.2,0.001045,0.000719, 28,0.005620,0.000142,  29.232
   642.4,0.001045,0.000718, 28,0.005627,0.000142,  29.231
   642.6,0.001051,0.000721, 28,0.005488,0.000106,  29.231
   642.8,0.001051,0.000721, 28,0.005274,0.000142,  29.228
   643.0,0.001047,0.000721, 28,0.004989,0.000142,  29.230
   643.2,0.001047,0.000725, 28,0.004677,0.000106,  29.229
   643.4,0.001047,0.000727, 28,0.004332,0.000142,  29.228
   643.6,0.001050,0.000728, 28,0.003935,0.000129,  29.227
   643.8,0.001047,0.000726, 28,0.003965,0.000093,  29.226
   644.0,0.001050,0.000728, 28,0.004184,0.000129,  29.230
   644.2,0.001050,0.000725, 28,0.004574,0.000116,  29.226
   644.4,0.001050,0.000729, 28,0.004736,0.000080,  29.228
   644.6,0.001047,0.000728, 28,0.004880,0.000129,  29.226
   644.8,0.001050,0.000728, 28,0.004987,0.000129,  29.229
   645.0,0.001052,0.000727, 28,0.005104,0.000093,  29.227
   645.2,0.001055,0.000725, 28,0.005206,0.000129,  29.226
   645.4,0.001057,0.000725, 28,0.005304,0.000129,  29.226
   645.6,0.001055,0.000721, 28,0.005378,0.000116,  29.225
   645.8,0.001061,0.000715, 28,0.005418,0.000139,  29.223
   646.0,0.001060,0.000719, 28,0.005439,0.000152,  29.226
   646.2,0.001060,0.000722, 28,0.005486,0.000152,  29.227
   646.4,0.001068,0.000717, 28,0.005538,0.000165,  29.229
   646.6,0.001065,0.000718, 28,0.005585,0.000165,  29.229
   646.8,0.001065,0.000720, 28,0.005596,0.000165,  29.226
   647.0,0.001062,0.000722, 28,0.005608,0.000165,  29.227
   647.2,0.001062,0.000722, 28,0.005599,0.000165,  29.230
   647.4,0.001065,0.000731, 28,0.005606,0.000165,  29.226
   647.6,0.001071,0.000732, 28,0.005606,0.000165,  29.220
   647.8,0.001065,0.000733, 28,0.005608,0.000165,  29.216
   648.0,0.001067,0.000736, 28,0.005608,0.000178,  29.218
   648.2,0.001073,0.000736, 28,0.005493,0.000142,  29.216
   648.4,0.001070,0.000740, 28,0.005324,0.000178,  29.215
   648.6,0.001072,0.000738, 28,0.005116,0.000192,  29.215
   648.8,0.001081,0.000735, 28,0.005088,0.000178,  29.214
   649.0,0.001078,0.000739, 28,0.005145,0.000165,  29.216
   649.2,0.001080,0.000738, 28,0.005265,0.000152,  29.215
   649.4,0.001086,0.000736, 28,0.005335,0.000152,  29.212
   649.6,0.001082,0.000742, 28,0.005411,0.000165,  29.217
   649.8,0.001079,0.000738, 28,0.005502,0.000165,  29.211
   650.0,0.001080,0.000742, 28,0.005519,0.000165,  29.214
   650.2,0.001077,0.000745, 28,0.005517,0.000165,  29.214
   650.4,0.001079,0.000746, 28,0.005491,0.000165,  29.214
   650.6,0.001079,0.000741, 28,0.005471,0.000165,  29.209
   650.8,0.001073,0.000739, 28,0.005446,0.000165,  29.207
   651.0,0.001077,0.000737, 28,0.005427,0.000165,  29.210
   651.2,0.001074,0.000742, 28,0.005458,0.000165,  29.209
   651.4,0.001068,0.000741, 28,0.005505,0.000165,  29.207
   651.6,0.001077,0.000740, 28,0.005582,0.000165,  29.211
   651.8,0.001079,0.000742, 28,0.005604,0.000165,  29.209
   652.0,0.001079,0.000741, 28,0.005606,0.000165,  29.205
   652.2,0.001073,0.000745, 28,0.005597,0.000178,  29.208
   652.4,0.001073,0.000744, 28,0.005627,0.000178,  29.210
   652.6,0.001073,0.000742, 28,0.005646,0.000178,  29.210
   652.8,0.001070,0.000742, 28,0.005685,0.000178,  29.208
   653.0,0.001070,0.000741, 28,0.005709,0.000178,  29.213
   653.2,0.001072,0.000739, 28,0.005718,0.000165,  29.208
   653.4,0.001075,0.000737, 28,0.005725,0.000152,  29.208
   653.6,0.001077,0.000740, 28,0.005679,0.000152,  29.206
   653.8,0.001080,0.000738, 28,0.005603,0.000165,  29.210
   654.0,0.001082,0.000732, 28,0.005498,0.000165,  29.204
   654.2,0.001082,0.000732, 28,0.005505,0.000165,  29.207
   654.4,0.001080,0.000732, 28,0.005531,0.000165,  29.207
   654.6,0.001082,0.000736, 28,0.005601,0.000165,  29.204
   654.8,0.001082,0.000743, 28,0.005610,0.000165,  29.209
   655.0,0.001082,0.000745, 28,0.005605,0.000165,  29.211
   655.2,0.001082,0.000743, 28,0.005587,0.000165,  29.207
   655.4,0.001082,0.000742, 28,0.005450,0.000165,  29.205
   655.6,0.001088,0.000743, 28,0.005236,0.000165,  29.205
   655.8,0.001082,0.000741, 28,0.004965,0.000165,  29.207
   656.0,0.001082,0.000749, 28,0.004935,0.000165,  29.202
   656.2,0.001088,0.000751, 28,0.004998,0.000152,  29.202
   656.4,0.001085,0.000743, 28,0.005152,0.000152,  29.205
   656.6,0.001087,0.000745, 28,0.005392,0.000152,  29.202
   656.8,0.001087,0.000745, 28,0.005478,0.000116,  29.206
   657.0,0.001090,0.000746, 28,0.005547,0.000152,  29.205
   657.2,0.001092,0.000747, 28,0.005613,0.000165,  29.208
   657.4,0.001090,0.000746, 28,0.005606,0.000165,  29.207
   657.6,0.001090,0.000754, 28,0.005571,0.000165,  29.207
   657.8,0.001090,0.000755, 28,0.005500,0.000165,  29.206
   658.0,0.001090,0.000754, 28,0.005516,0.000165,  29.208
   658.2,0.001090,0.000753, 28,0.005561,0.000165,  29.206
   658.4,0.001090,0.000752, 28,0.005643,0.000165,  29.206
   658.6,0.001090,0.000752, 28,0.005564,0.000165,  29.209
   658.8,0.001092,0.000751, 28,0.005404,0.000152,  29.207
   659.0,0.001092,0.000751, 28,0.005192,0.000165,  29.200
   659.2,0.001095,0.000756, 28,0.005192,0.000165,  29.207
   659.4,0.001097,0.000757, 28,0.005262,0.000152,  29.208
   659.6,0.001095,0.000755, 28,0.005406,0.000165,  29.209
   659.8,0.001095,0.000759, 28,0.005467,0.000165,  29.210
   660.0,0.001095,0.000762, 28,0.005507,0.000152,  29.209
   660.2,0.001095,0.000759, 28,0.005550,0.000165,  29.211
   660.4,0.001092,0.000758, 28,0.005596,0.000165,  29.211
   660.6,0.001095,0.000757, 28,0.005620,0.000152,  29.210
   660.8,0.001095,0.000758, 28,0.005650,0.000165,  29.214
   661.0,0.001097,0.000757, 28,0.005617,0.000165,  29.216
   661.2,0.001103,0.000755, 28,0.005538,0.000165,  29.216
   661.4,0.001100,0.000751, 28,0.005427,0.000165,  29.211
   661.6,0.001100,0.000755, 28,0.005458,0.000165,  29.216
   661.8,0.001102,0.000756, 28,0.005538,0.000165,  29.224
   662.0,0.001107,0.000751, 28,0.005670,0.000178,  29.217
   662.2,0.001107,0.000752, 28,0.005684,0.000142,  29.211
   662.4,0.001107,0.000751, 28,0.005646,0.000106,  29.219
   662.6,0.001107,0.000750, 28,0.005570,0.000119,  29.216
   662.8,0.001107,0.000753, 28,0.005571,0.000119,  29.222
   663.0,0.001105,0.000752, 28,0.005578,0.000106,  29.221
   663.2,0.001096,0.000750, 28,0.005608,0.000106,  29.225
   663.4,0.001096,0.000756, 28,0.005547,0.000106,  29.218
   663.6,0.001099,0.000756, 28,0.005446,0.000142,  29.222
   663.8,0.001096,0.000759, 28,0.005302,0.000129,  29.221
   664.0,0.001096,0.000761, 28,0.005319,0.000093,  29.226
   664.2,0.001101,0.000760, 28,0.005396,0.000129,  29.218
   664.4,0.001110,0.000755, 28,0.005528,0.000116,  29.224
   664.6,0.001112,0.000753, 28,0.005582,0.000080,  29.225
   664.8,0.001112,0.000752, 28,0.005622,0.000129,  29.227
   665.0,0.001121,0.000752, 28,0.005653,0.000129,  29.225
   665.2,0.001121,0.000760, 28,0.005676,0.000093,  29.225
   665.4,0.001117,0.000762, 28,0.005683,0.000116,  29.226
   665.6,0.001120,0.000760, 28,0.005665,0.000116,  29.227
   665.8,0.001117,0.000765, 28,0.005644,0.000129,  29.225
   666.0,0.001117,0.000767, 28,0.005620,0.000116,  29.225
   666.2,0.001114,0.000767, 28,0.005596,0.000129,  29.227
   666.4,0.001117,0.000766, 28,0.005562,0.000129,  29.233
   666.6,0.001122,0.000766, 28,0.005556,0.000165,  29.234
   666.8,0.001118,0.000766, 28,0.005569,0.000152,  29.236
   667.0,0.001118,0.000767, 28,0.005592,0.000165,  29.239
   667.2,0.001124,0.000771, 28,0.005639,0.000165,  29.238
   667.4,0.001127,0.000765, 28,0.005700,0.000152,  29.236
   667.6,0.001129,0.000769, 28,0.005777,0.000165,  29.233
   667.8,0.001129,0.000767, 28,0.005817,0.000152,  29.235
   668.0,0.001132,0.000769, 28,0.005848,0.000139,  29.238
   668.2,0.001132,0.000771, 28,0.005862,0.000152,  29.240
   668.4,0.001134,0.000769, 28,0.005853,0.000139,  29.244
   668.6,0.001134,0.000766, 28,0.005820,0.000139,  29.243
   668.8,0.001132,0.000768, 28,0.005763,0.000152,  29.239
   669.0,0.001129,0.000772, 28,0.005773,0.000116,  29.244
   669.2,0.001129,0.000770, 28,0.005818,0.000116,  29.240
   669.4,0.001129,0.000772, 28,0.005881,0.000129,  29.241
   669.6,0.001129,0.000772, 28,0.005898,0.000093,  29.243
   669.8,0.001129,0.000770, 28,0.005907,0.000116,  29.242
   670.0,0.001138,0.000774, 28,0.005907,0.000129,  29.245
   670.2,0.001138,0.000780, 28,0.005879,0.000093,  29.238
   670.4,0.001135,0.000777, 28,0.005846,0.000129,  29.243
   670.6,0.001141,0.000779, 28,0.005790,0.000129,  29.242
   670.8,0.001141,0.000783, 28,0.005768,0.000093,  29.242
