Run Name,Run 1
Run Date,02:59:53 PM   03-20-15
Method Name,50%B-Isocratic.66
Export Format Version, 1.00
Method ID, 2357
Points/Second, 5.00
Number of Records,   3528
Offset from Run Start Time,00:00:00
Run End Time,00:11:48
Time,Second
QuadTec 1, (280.0 nm), AU
QuadTec 2, (260.0 nm), AU
Gradient Pump,<Not Selected>
QuadTec 3, (214.0 nm), AU
QuadTec 4, (405.0 nm), AU
Conductivity,mS/cm
Trace 6,<Not Available>
GP Pressure,<Not Selected>
Volume,<Not Selected>
Fraction,<Not Available>
Time,QuadTec 1,QuadTec 2,QuadTec 3,QuadTec 4,Conductivity
     0.0,0.001681,0.000000,0.011750,0.000000,  49.572
     0.2,0.001768,0.000000,0.011750,0.000000,  49.463
     0.4,0.001675,0.000000,0.011750,0.000000,  49.360
     0.6,0.000940,0.000000,0.011750,0.000000,  49.310
     0.8,0.000000,0.000000,0.000000,0.000000,  49.292
     1.0,0.000000,0.000000,0.000000,0.000000,  49.276
     1.2,0.000000,0.000000,0.000000,0.000000,  49.274
     1.4,0.000000,0.000000,0.000000,0.000000,  49.263
     1.6,0.000000,0.000000,0.000000,0.000000,  49.258
     1.8,0.000000,0.000000,0.000000,0.000000,  49.254
     2.0,0.000000,0.000000,0.000000,0.000000,  49.251
     2.2,0.000000,0.000000,0.000000,0.000000,  49.244
     2.4,0.000000,0.000000,0.000000,0.000000,  49.212
     2.6,0.000000,0.000000,0.000000,0.000000,  49.162
     2.8,0.000000,0.000000,0.000000,0.000000,  49.143
     3.0,0.000000,0.000000,0.000000,0.000000,  49.132
     3.2,0.000000,0.000000,0.000000,0.000000,  49.130
     3.4,0.000000,0.000000,0.000000,0.000000,  49.132
     3.6,0.000000,0.000000,0.000000,0.000000,  49.146
     3.8,0.000000,0.000000,0.000000,0.000000,  49.163
     4.0,0.000000,0.000000,0.000000,0.000000,  49.180
     4.2,0.000000,0.000000,0.000000,0.000000,  49.176
     4.4,0.000090,0.000000,0.000000,0.000131,  49.159
     4.6,0.000153,0.000223,-0.002930,0.000195,  49.160
     4.8,0.000204,0.000224,-0.002395,0.000209,  49.176
     5.0,0.000218,0.000228,-0.001930,0.000184,  49.160
     5.2,0.000219,0.000234,-0.001511,0.000174,  49.141
     5.4,0.000185,0.000240,-0.001168,0.000187,  49.127
     5.6,0.000181,0.000253,-0.000888,0.000187,  49.105
     5.8,0.000191,0.000270,-0.000680,0.000163,  49.105
     6.0,0.000198,0.000265,-0.001324,0.000163,  49.098
     6.2,0.000181,0.000253,-0.002398,0.000187,  49.095
     6.4,0.000176,0.000233,-0.003906,0.000200,  49.095
     6.6,0.000149,0.000211,-0.004018,0.000163,  49.102
     6.8,0.000135,0.000195,-0.003631,0.000150,  49.102
     7.0,0.000139,0.000193,-0.002744,0.000163,  49.097
     7.2,0.000139,0.000190,-0.002500,0.000125,  49.091
     7.4,0.000132,0.000189,-0.002338,0.000150,  49.092
     7.6,0.000142,0.000196,-0.002274,0.000163,  49.091
     7.8,0.000142,0.000200,-0.002137,0.000125,  49.110
     8.0,0.000138,0.000204,-0.002035,0.000163,  49.130
     8.2,0.000152,0.000201,-0.001968,0.000176,  49.142
     8.4,0.000158,0.000203,-0.001886,0.000139,  49.144
     8.6,0.000175,0.000221,-0.001831,0.000176,  49.125
     8.8,0.000210,0.000244,-0.001812,0.000203,  49.127
     9.0,0.000250,0.000287,-0.001757,0.000179,  49.137
     9.2,0.000265,0.000301,-0.001689,0.000230,  49.143
     9.4,0.000271,0.000301,-0.001621,0.000243,  49.131
     9.6,0.000268,0.000300,-0.001953,0.000206,  49.111
     9.8,0.000256,0.000311,-0.002502,0.000230,  49.106
    10.0,0.000265,0.000328,-0.003236,0.000230,  49.103
    10.2,0.000267,0.000350,-0.003557,0.000192,  49.107
    10.4,0.000283,0.000348,-0.003788,0.000230,  49.107
    10.6,0.000276,0.000337,-0.003902,0.000230,  49.112
    10.8,0.000274,0.000314,-0.004079,0.000192,  49.124
    11.0,0.000262,0.000306,-0.004238,0.000230,  49.125
    11.2,0.000251,0.000306,-0.004379,0.000230,  49.128
    11.4,0.000263,0.000307,-0.004191,0.000192,  49.126
    11.6,0.000267,0.000311,-0.003834,0.000230,  49.133
    11.8,0.000263,0.000309,-0.003342,0.000230,  49.143
    12.0,0.000280,0.000324,-0.003109,0.000192,  49.163
    12.2,0.000286,0.000331,-0.002947,0.000230,  49.177
    12.4,0.000288,0.000333,-0.002865,0.000230,  49.203
    12.6,0.000294,0.000339,-0.002721,0.000230,  49.211
    12.8,0.000300,0.000355,-0.002543,0.000206,  49.206
    13.0,0.000314,0.000384,-0.002409,0.000256,  49.205
    13.2,0.000338,0.000416,-0.002274,0.000246,  49.212
    13.4,0.000363,0.000418,-0.002124,0.000259,  49.225
    13.6,0.000362,0.000413,-0.002042,0.000310,  49.219
    13.8,0.000369,0.000397,-0.001919,0.000310,  49.221
    14.0,0.000354,0.000401,-0.001804,0.000272,  49.226
    14.2,0.000343,0.000405,-0.001734,0.000310,  49.241
    14.4,0.000352,0.000417,-0.001689,0.000310,  49.250
    14.6,0.000350,0.000417,-0.001652,0.000272,  49.264
    14.8,0.000343,0.000405,-0.001624,0.000297,  49.277
    15.0,0.000343,0.000396,-0.001640,0.000310,  49.298
    15.2,0.000340,0.000394,-0.001665,0.000259,  49.307
    15.4,0.000332,0.000388,-0.001708,0.000246,  49.329
    15.6,0.000335,0.000393,-0.001770,0.000259,  49.340
    15.8,0.000338,0.000395,-0.001778,0.000246,  49.358
    16.0,0.000334,0.000400,-0.001768,0.000246,  49.373
    16.2,0.000341,0.000402,-0.001768,0.000259,  49.384
    16.4,0.000344,0.000407,-0.001928,0.000246,  49.394
    16.6,0.000343,0.000412,-0.002153,0.000246,  49.398
    16.8,0.000357,0.000406,-0.002450,0.000259,  49.405
    17.0,0.000363,0.000404,-0.002432,0.000259,  49.404
    17.2,0.000371,0.000418,-0.002272,0.000272,  49.410
    17.4,0.000400,0.000442,-0.002005,0.000286,  49.420
    17.6,0.000421,0.000477,-0.001915,0.000299,  49.430
    17.8,0.000417,0.000479,-0.001835,0.000313,  49.438
    18.0,0.000421,0.000471,-0.001790,0.000326,  49.461
    18.2,0.000416,0.000455,-0.001862,0.000326,  49.466
    18.4,0.000409,0.000455,-0.002007,0.000313,  49.481
    18.6,0.000403,0.000460,-0.002216,0.000313,  49.496
    18.8,0.000407,0.000470,-0.002226,0.000313,  49.513
    19.0,0.000404,0.000470,-0.002191,0.000299,  49.525
    19.2,0.000404,0.000465,-0.002136,0.000299,  49.533
    19.4,0.000401,0.000456,-0.002161,0.000299,  49.547
    19.6,0.000401,0.000456,-0.002181,0.000286,  49.556
    19.8,0.000401,0.000456,-0.002253,0.000286,  49.560
    20.0,0.000404,0.000453,-0.002710,0.000286,  49.576
    20.2,0.000407,0.000453,-0.003354,0.000286,  49.599
    20.4,0.000403,0.000458,-0.004211,0.000286,  49.603
    20.6,0.000403,0.000460,-0.004184,0.000286,  49.608
    20.8,0.000413,0.000465,-0.003826,0.000286,  49.609
    21.0,0.000412,0.000467,-0.003146,0.000286,  49.609
    21.2,0.000418,0.000471,-0.002822,0.000299,  49.620
    21.4,0.000431,0.000488,-0.002520,0.000337,  49.623
    21.6,0.000439,0.000506,-0.002271,0.000350,  49.630
    21.8,0.000461,0.000537,-0.002119,0.000350,  49.630
    22.0,0.000486,0.000537,-0.002021,0.000326,  49.630
    22.2,0.000482,0.000522,-0.002031,0.000363,  49.640
    22.4,0.000476,0.000503,-0.001941,0.000339,  49.646
    22.6,0.000461,0.000501,-0.001834,0.000339,  49.655
    22.8,0.000450,0.000509,-0.001761,0.000377,  49.660
    23.0,0.000452,0.000521,-0.001654,0.000377,  49.673
    23.2,0.000453,0.000521,-0.001626,0.000363,  49.677
    23.4,0.000442,0.000511,-0.001644,0.000388,  49.682
    23.6,0.000442,0.000504,-0.001704,0.000388,  49.688
    23.8,0.000444,0.000504,-0.001739,0.000350,  49.691
    24.0,0.000439,0.000502,-0.001767,0.000350,  49.692
    24.2,0.000442,0.000507,-0.001839,0.000350,  49.699
    24.4,0.000456,0.000512,-0.001837,0.000313,  49.717
    24.6,0.000452,0.000509,-0.001792,0.000350,  49.715
    24.8,0.000455,0.000521,-0.001730,0.000350,  49.706
    25.0,0.000459,0.000523,-0.002366,0.000313,  49.698
    25.2,0.000458,0.000525,-0.003358,0.000350,  49.697
    25.4,0.000470,0.000529,-0.004660,0.000363,  49.701
    25.6,0.000486,0.000534,-0.004821,0.000326,  49.712
    25.8,0.000491,0.000548,-0.004600,0.000377,  49.712
    26.0,0.000507,0.000562,-0.003970,0.000390,  49.709
    26.2,0.000522,0.000579,-0.003640,0.000339,  49.704
    26.4,0.000515,0.000576,-0.003272,0.000377,  49.708
    26.6,0.000513,0.000565,-0.002859,0.000390,  49.712
    26.8,0.000505,0.000543,-0.002608,0.000339,  49.715
    27.0,0.000491,0.000541,-0.002429,0.000377,  49.718
    27.2,0.000482,0.000544,-0.002296,0.000377,  49.715
    27.4,0.000477,0.000550,-0.002241,0.000339,  49.721
    27.6,0.000458,0.000548,-0.002241,0.000363,  49.722
    27.8,0.000448,0.000534,-0.002314,0.000363,  49.721
    28.0,0.000447,0.000515,-0.002339,0.000326,  49.720
    28.2,0.000441,0.000510,-0.002339,0.000337,  49.721
    28.4,0.000437,0.000508,-0.002339,0.000337,  49.720
    28.6,0.000437,0.000503,-0.002319,0.000313,  49.728
    28.8,0.000437,0.000500,-0.002302,0.000337,  49.726
    29.0,0.000437,0.000493,-0.002292,0.000337,  49.719
    29.2,0.000437,0.000496,-0.002264,0.000313,  49.713
    29.4,0.000441,0.000503,-0.002237,0.000337,  49.708
    29.6,0.000445,0.000504,-0.002219,0.000337,  49.715
    29.8,0.000455,0.000519,-0.002112,0.000326,  49.723
    30.0,0.000477,0.000531,-0.001987,0.000363,  49.722
    30.2,0.000479,0.000543,-0.001817,0.000363,  49.722
    30.4,0.000488,0.000565,-0.001727,0.000339,  49.723
    30.6,0.000502,0.000565,-0.001725,0.000363,  49.718
    30.8,0.000494,0.000551,-0.001733,0.000363,  49.717
    31.0,0.000491,0.000535,-0.001725,0.000377,  49.723
    31.2,0.000488,0.000533,-0.001762,0.000326,  49.726
    31.4,0.000478,0.000528,-0.001810,0.000377,  49.729
    31.6,0.000476,0.000532,-0.001827,0.000353,  49.730
    31.8,0.000464,0.000523,-0.001827,0.000339,  49.732
    32.0,0.000453,0.000519,-0.001800,0.000326,  49.730
    32.2,0.000455,0.000507,-0.001798,0.000326,  49.730
    32.4,0.000448,0.000499,-0.001805,0.000326,  49.730
    32.6,0.000441,0.000503,-0.001840,0.000350,  49.737
    32.8,0.000445,0.000507,-0.001885,0.000350,  49.739
    33.0,0.000442,0.000507,-0.001895,0.000313,  49.737
    33.2,0.000435,0.000507,-0.001923,0.000350,  49.735
    33.4,0.000442,0.000507,-0.001968,0.000350,  49.730
    33.6,0.000442,0.000514,-0.001940,0.000313,  49.724
    33.8,0.000444,0.000518,-0.001895,0.000350,  49.720
    34.0,0.000470,0.000527,-0.001831,0.000363,  49.731
    34.2,0.000494,0.000538,-0.002377,0.000326,  49.730
    34.4,0.000490,0.000550,-0.003221,0.000377,  49.729
    34.6,0.000497,0.000562,-0.004375,0.000390,  49.730
    34.8,0.000499,0.000573,-0.004420,0.000339,  49.732
    35.0,0.000494,0.000573,-0.004090,0.000377,  49.733
    35.2,0.000494,0.000562,-0.003375,0.000390,  49.735
    35.4,0.000499,0.000548,-0.003099,0.000353,  49.737
    35.6,0.000488,0.000543,-0.002877,0.000390,  49.737
    35.8,0.000479,0.000543,-0.002707,0.000403,  49.738
    36.0,0.000474,0.000546,-0.002957,0.000353,  49.737
    36.2,0.000461,0.000539,-0.003404,0.000377,  49.742
    36.4,0.000458,0.000527,-0.004082,0.000377,  49.738
    36.6,0.000459,0.000521,-0.004259,0.000339,  49.740
    36.8,0.000452,0.000516,-0.004276,0.000326,  49.738
    37.0,0.000452,0.000511,-0.004125,0.000326,  49.738
    37.2,0.000453,0.000514,-0.003909,0.000339,  49.739
    37.4,0.000450,0.000514,-0.003606,0.000326,  49.736
    37.6,0.000453,0.000511,-0.003186,0.000326,  49.732
    37.8,0.000453,0.000516,-0.003044,0.000339,  49.726
    38.0,0.000453,0.000531,-0.003009,0.000326,  49.727
    38.2,0.000468,0.000543,-0.003074,0.000339,  49.725
    38.4,0.000486,0.000560,-0.002852,0.000353,  49.728
    38.6,0.000508,0.000569,-0.002565,0.000353,  49.726
    38.8,0.000504,0.000571,-0.002206,0.000366,  49.725
    39.0,0.000497,0.000572,-0.002152,0.000353,  49.723
    39.2,0.000490,0.000567,-0.002214,0.000339,  49.724
    39.4,0.000482,0.000555,-0.002386,0.000353,  49.721
    39.6,0.000482,0.000548,-0.002358,0.000353,  49.726
    39.8,0.000493,0.000546,-0.002279,0.000353,  49.719
    40.0,0.000482,0.000541,-0.002181,0.000366,  49.722
    40.2,0.000476,0.000542,-0.002089,0.000353,  49.720
    40.4,0.000474,0.000537,-0.002007,0.000339,  49.723
    40.6,0.000461,0.000522,-0.001923,0.000339,  49.720
    40.8,0.000455,0.000521,-0.001876,0.000339,  49.722
    41.0,0.000456,0.000521,-0.001848,0.000339,  49.723
    41.2,0.000448,0.000507,-0.001866,0.000326,  49.723
    41.4,0.000445,0.000510,-0.001901,0.000339,  49.725
    41.6,0.000450,0.000507,-0.001963,0.000326,  49.722
    41.8,0.000442,0.000503,-0.002045,0.000326,  49.722
    42.0,0.000442,0.000509,-0.002155,0.000326,  49.718
    42.2,0.000450,0.000521,-0.002110,0.000339,  49.720
    42.4,0.000455,0.000534,-0.002055,0.000326,  49.722
    42.6,0.000473,0.000565,-0.001938,0.000339,  49.725
    42.8,0.000505,0.000576,-0.002100,0.000353,  49.725
    43.0,0.000497,0.000568,-0.002372,0.000353,  49.722
    43.2,0.000488,0.000555,-0.002777,0.000366,  49.730
    43.4,0.000477,0.000553,-0.002795,0.000353,  49.726
    43.6,0.000470,0.000545,-0.002678,0.000339,  49.729
    43.8,0.000476,0.000542,-0.002452,0.000353,  49.725
    44.0,0.000493,0.000539,-0.002342,0.000339,  49.730
    44.2,0.000485,0.000541,-0.002217,0.000339,  49.732
    44.4,0.000479,0.000543,-0.002120,0.000339,  49.734
    44.6,0.000477,0.000546,-0.002100,0.000339,  49.736
    44.8,0.000467,0.000541,-0.002118,0.000326,  49.737
    45.0,0.000461,0.000535,-0.002180,0.000326,  49.741
    45.2,0.000462,0.000526,-0.002178,0.000339,  49.743
    45.4,0.000452,0.000526,-0.002160,0.000326,  49.741
    45.6,0.000448,0.000518,-0.002133,0.000326,  49.742
    45.8,0.000456,0.000515,-0.002178,0.000339,  49.738
    46.0,0.000448,0.000516,-0.002268,0.000326,  49.739
    46.2,0.000448,0.000515,-0.002370,0.000326,  49.737
    46.4,0.000453,0.000517,-0.002299,0.000339,  49.736
    46.6,0.000458,0.000527,-0.002217,0.000326,  49.738
    46.8,0.000476,0.000548,-0.002073,0.000339,  49.741
    47.0,0.000505,0.000571,-0.002003,0.000353,  49.742
    47.2,0.000515,0.000570,-0.001950,0.000353,  49.742
    47.4,0.000505,0.000565,-0.001950,0.000353,  49.744
    47.6,0.000500,0.000546,-0.002003,0.000353,  49.748
    47.8,0.000482,0.000540,-0.002092,0.000326,  49.746
    48.0,0.000474,0.000545,-0.002217,0.000339,  49.744
    48.2,0.000488,0.000545,-0.002325,0.000339,  49.750
    48.4,0.000494,0.000540,-0.002444,0.000339,  49.749
    48.6,0.000494,0.000536,-0.002573,0.000339,  49.750
    48.8,0.000488,0.000540,-0.002608,0.000339,  49.753
    49.0,0.000480,0.000537,-0.002598,0.000326,  49.755
    49.2,0.000469,0.000527,-0.002586,0.000326,  49.758
    49.4,0.000466,0.000523,-0.002594,0.000326,  49.758
    49.6,0.000460,0.000521,-0.002576,0.000313,  49.758
    49.8,0.000464,0.000516,-0.002602,0.000313,  49.759
    50.0,0.000473,0.000517,-0.002761,0.000313,  49.757
    50.2,0.000479,0.000517,-0.002968,0.000326,  49.756
    50.4,0.000482,0.000517,-0.003272,0.000326,  49.756
    50.6,0.000480,0.000517,-0.003217,0.000339,  49.756
    50.8,0.000482,0.000529,-0.003020,0.000326,  49.759
    51.0,0.000487,0.000552,-0.002689,0.000326,  49.762
    51.2,0.000498,0.000577,-0.002592,0.000339,  49.764
    51.4,0.000524,0.000578,-0.002564,0.000353,  49.765
    51.6,0.000521,0.000566,-0.002549,0.000366,  49.782
    51.8,0.000501,0.000545,-0.002614,0.000379,  49.777
    52.0,0.000483,0.000542,-0.002541,0.000353,  49.776
    52.2,0.000479,0.000541,-0.002477,0.000339,  49.777
    52.4,0.000482,0.000550,-0.002410,0.000353,  49.780
    52.6,0.000491,0.000550,-0.002393,0.000353,  49.781
    52.8,0.000483,0.000552,-0.002430,0.000353,  49.789
    53.0,0.000485,0.000555,-0.002494,0.000366,  49.790
    53.2,0.000472,0.000553,-0.002504,0.000353,  49.797
    53.4,0.000462,0.000555,-0.002539,0.000339,  49.796
    53.6,0.000466,0.000542,-0.002564,0.000339,  49.797
    53.8,0.000460,0.000538,-0.002545,0.000339,  49.801
    54.0,0.000453,0.000530,-0.002525,0.000326,  49.806
    54.2,0.000463,0.000530,-0.002488,0.000326,  49.804
    54.4,0.000460,0.000535,-0.002531,0.000339,  49.800
    54.6,0.000456,0.000532,-0.002585,0.000326,  49.802
    54.8,0.000469,0.000535,-0.002677,0.000326,  49.798
    55.0,0.000475,0.000532,-0.002605,0.000339,  49.801
    55.2,0.000480,0.000543,-0.002470,0.000326,  49.808
    55.4,0.000500,0.000557,-0.002256,0.000339,  49.803
    55.6,0.000518,0.000584,-0.002176,0.000353,  49.808
    55.8,0.000508,0.000577,-0.002156,0.000353,  49.810
    56.0,0.000496,0.000561,-0.002156,0.000353,  49.807
    56.2,0.000474,0.000545,-0.002139,0.000353,  49.809
    56.4,0.000464,0.000539,-0.002199,0.000326,  49.805
    56.6,0.000477,0.000538,-0.002261,0.000326,  49.809
    56.8,0.000494,0.000547,-0.002299,0.000339,  49.810
    57.0,0.000501,0.000549,-0.002371,0.000326,  49.812
    57.2,0.000483,0.000551,-0.002438,0.000326,  49.813
    57.4,0.000485,0.000548,-0.002500,0.000339,  49.817
    57.6,0.000472,0.000546,-0.002578,0.000326,  49.824
    57.8,0.000462,0.000541,-0.002648,0.000326,  49.825
    58.0,0.000463,0.000529,-0.003246,0.000326,  49.824
    58.2,0.000457,0.000522,-0.004085,0.000313,  49.828
    58.4,0.000450,0.000524,-0.005225,0.000313,  49.829
    58.6,0.000460,0.000523,-0.005233,0.000326,  49.827
    58.8,0.000463,0.000520,-0.004797,0.000326,  49.825
    59.0,0.000462,0.000524,-0.003949,0.000339,  49.819
    59.2,0.000479,0.000532,-0.003674,0.000339,  49.821
    59.4,0.000488,0.000543,-0.003472,0.000339,  49.820
    59.6,0.000493,0.000562,-0.003342,0.000339,  49.820
    59.8,0.000515,0.000591,-0.003172,0.000353,  49.818
    60.0,0.000531,0.000583,-0.003063,0.000339,  49.819
    60.2,0.000520,0.000572,-0.002964,0.000339,  49.819
    60.4,0.000512,0.000551,-0.003088,0.000339,  49.820
    60.6,0.000491,0.000538,-0.003365,0.000326,  49.818
    60.8,0.000483,0.000545,-0.003757,0.000350,  49.815
    61.0,0.000497,0.000557,-0.003792,0.000363,  49.817
    61.2,0.000506,0.000554,-0.003713,0.000326,  49.818
    61.4,0.000499,0.000550,-0.003507,0.000377,  49.822
    61.6,0.000500,0.000551,-0.003213,0.000377,  49.821
    61.8,0.000488,0.000549,-0.003069,0.000339,  49.824
    62.0,0.000477,0.000546,-0.002950,0.000363,  49.822
    62.2,0.000482,0.000536,-0.002831,0.000363,  49.825
    62.4,0.000475,0.000531,-0.002838,0.000339,  49.818
    62.6,0.000468,0.000528,-0.002903,0.000363,  49.815
    62.8,0.000472,0.000525,-0.003074,0.000377,  49.820
    63.0,0.000475,0.000528,-0.003082,0.000339,  49.815
    63.2,0.000477,0.000529,-0.003002,0.000377,  49.815
    63.4,0.000494,0.000539,-0.002920,0.000390,  49.812
    63.6,0.000509,0.000551,-0.002831,0.000353,  49.809
    63.8,0.000515,0.000567,-0.002716,0.000390,  49.809
    64.0,0.000530,0.000586,-0.002601,0.000403,  49.807
    64.2,0.000542,0.000605,-0.002546,0.000353,  49.813
    64.4,0.000539,0.000600,-0.002536,0.000377,  49.818
    64.6,0.000525,0.000581,-0.002569,0.000377,  49.815
    64.8,0.000502,0.000553,-0.002595,0.000339,  49.809
    65.0,0.000506,0.000548,-0.002630,0.000363,  49.814
    65.2,0.000510,0.000548,-0.002709,0.000377,  49.806
    65.4,0.000526,0.000558,-0.002709,0.000353,  49.808
    65.6,0.000526,0.000556,-0.002692,0.000390,  49.809
    65.8,0.000515,0.000546,-0.002657,0.000403,  49.809
    66.0,0.000506,0.000547,-0.002719,0.000353,  49.813
    66.2,0.000494,0.000544,-0.002826,0.000377,  49.815
    66.4,0.000486,0.000532,-0.002986,0.000390,  49.814
    66.6,0.000491,0.000532,-0.003074,0.000339,  49.818
    66.8,0.000488,0.000532,-0.003136,0.000377,  49.816
    67.0,0.000480,0.000529,-0.003206,0.000390,  49.815
    67.2,0.000491,0.000529,-0.003258,0.000353,  49.813
    67.4,0.000491,0.000542,-0.003311,0.000390,  49.816
    67.6,0.000496,0.000557,-0.003313,0.000403,  49.814
    67.8,0.000511,0.000574,-0.003223,0.000366,  49.819
    68.0,0.000532,0.000589,-0.003089,0.000403,  49.814
    68.2,0.000531,0.000596,-0.002877,0.000403,  49.815
    68.4,0.000531,0.000605,-0.002894,0.000390,  49.818
    68.6,0.000525,0.000600,-0.003009,0.000390,  49.826
    68.8,0.000515,0.000590,-0.003223,0.000401,  49.822
    69.0,0.000516,0.000576,-0.003293,0.000377,  49.826
    69.2,0.000517,0.000576,-0.003311,0.000377,  49.828
    69.4,0.000516,0.000580,-0.003336,0.000377,  49.823
    69.6,0.000528,0.000590,-0.003319,0.000390,  49.829
    69.8,0.000557,0.000584,-0.003326,0.000366,  49.830
    70.0,0.000546,0.000577,-0.003354,0.000430,  49.835
    70.2,0.000537,0.000571,-0.003381,0.000430,  49.832
    70.4,0.000526,0.000571,-0.003414,0.000393,  49.840
    70.6,0.000519,0.000565,-0.003439,0.000417,  49.845
    70.8,0.000516,0.000565,-0.003464,0.000430,  49.838
    71.0,0.000520,0.000565,-0.003517,0.000393,  49.843
    71.2,0.000516,0.000560,-0.003604,0.000417,  49.847
    71.4,0.000513,0.000552,-0.003701,0.000430,  49.847
    71.6,0.000517,0.000550,-0.003781,0.000393,  49.850
    71.8,0.000525,0.000564,-0.003870,0.000430,  49.851
    72.0,0.000546,0.000583,-0.003950,0.000444,  49.854
    72.2,0.000584,0.000609,-0.003967,0.000419,  49.853
    72.4,0.000580,0.000618,-0.003942,0.000457,  49.858
    72.6,0.000574,0.000617,-0.003900,0.000470,  49.866
    72.8,0.000566,0.000620,-0.003925,0.000446,  49.872
    73.0,0.000556,0.000618,-0.003967,0.000457,  49.874
    73.2,0.000553,0.000603,-0.004062,0.000457,  49.876
    73.4,0.000557,0.000597,-0.004150,0.000433,  49.882
    73.6,0.000559,0.000602,-0.004272,0.000457,  49.880
    73.8,0.000577,0.000603,-0.004396,0.000457,  49.890
    74.0,0.000612,0.000620,-0.004493,0.000446,  49.911
    74.2,0.000605,0.000620,-0.004572,0.000484,  49.919
    74.4,0.000592,0.000608,-0.004644,0.000484,  49.921
    74.6,0.000578,0.000604,-0.004687,0.000446,  49.933
    74.8,0.000572,0.000602,-0.004702,0.000470,  49.930
    75.0,0.000572,0.000596,-0.004690,0.000470,  49.938
    75.2,0.000566,0.000602,-0.004830,0.000433,  49.944
    75.4,0.000569,0.000599,-0.005016,0.000470,  49.951
    75.6,0.000569,0.000595,-0.005248,0.000484,  49.954
    75.8,0.000572,0.000592,-0.005281,0.000446,  49.963
    76.0,0.000575,0.000613,-0.005235,0.000497,  49.968
    76.2,0.000589,0.000641,-0.005091,0.000510,  49.974
    76.4,0.000624,0.000680,-0.005109,0.000486,  49.986
    76.6,0.000668,0.000692,-0.005173,0.000537,  49.995
    76.8,0.000674,0.000692,-0.005256,0.000551,  50.000
    77.0,0.000659,0.000678,-0.005326,0.000500,  50.010
    77.2,0.000642,0.000671,-0.005388,0.000510,  50.018
    77.4,0.000636,0.000659,-0.005482,0.000510,  50.041
    77.6,0.000622,0.000648,-0.005505,0.000510,  50.048
    77.8,0.000627,0.000653,-0.005521,0.000486,  50.058
    78.0,0.000639,0.000658,-0.005509,0.000510,  50.067
    78.2,0.000650,0.000678,-0.005544,0.000486,  50.076
    78.4,0.000685,0.000668,-0.005596,0.000500,  50.087
    78.6,0.000682,0.000656,-0.005668,0.000551,  50.100
    78.8,0.000662,0.000634,-0.005749,0.000551,  50.114
    79.0,0.000639,0.000629,-0.005836,0.000513,  50.125
    79.2,0.000630,0.000624,-0.005923,0.000537,  50.133
    79.4,0.000619,0.000633,-0.006027,0.000551,  50.146
    79.6,0.000624,0.000630,-0.006213,0.000513,  50.152
    79.8,0.000624,0.000620,-0.006460,0.000537,  50.186
    80.0,0.000625,0.000610,-0.006768,0.000551,  50.199
    80.2,0.000637,0.000634,-0.006786,0.000513,  50.213
    80.4,0.000664,0.000667,-0.006680,0.000551,  50.225
    80.6,0.000694,0.000727,-0.006485,0.000564,  50.234
    80.8,0.000746,0.000739,-0.006386,0.000553,  50.248
    81.0,0.000752,0.000736,-0.006270,0.000604,  50.267
    81.2,0.000726,0.000726,-0.006139,0.000617,  50.280
    81.4,0.000700,0.000697,-0.006112,0.000567,  50.308
    81.6,0.000687,0.000685,-0.006180,0.000564,  50.323
    81.8,0.000668,0.000671,-0.006276,0.000551,  50.333
    82.0,0.000652,0.000654,-0.006311,0.000513,  50.355
    82.2,0.000659,0.000656,-0.006363,0.000551,  50.367
    82.4,0.000681,0.000668,-0.006417,0.000551,  50.381
    82.6,0.000710,0.000682,-0.006541,0.000513,  50.403
    82.8,0.000707,0.000675,-0.006708,0.000564,  50.422
    83.0,0.000684,0.000669,-0.006895,0.000564,  50.460
    83.2,0.000657,0.000651,-0.006903,0.000526,  50.472
    83.4,0.000648,0.000647,-0.006839,0.000551,  50.488
    83.6,0.000628,0.000637,-0.006704,0.000537,  50.508
    83.8,0.000622,0.000634,-0.006650,0.000486,  50.524
    84.0,0.000619,0.000621,-0.006614,0.000524,  50.542
    84.2,0.000614,0.000619,-0.006604,0.000537,  50.551
    84.4,0.000618,0.000608,-0.006542,0.000524,  50.589
    84.6,0.000624,0.000627,-0.006438,0.000561,  50.611
    84.8,0.000644,0.000664,-0.006326,0.000588,  50.638
    85.0,0.000682,0.000719,-0.006301,0.000588,  50.666
    85.2,0.000725,0.000724,-0.006338,0.000601,  50.683
    85.4,0.000714,0.000702,-0.006402,0.000601,  50.700
    85.6,0.000690,0.000669,-0.006402,0.000588,  50.735
    85.8,0.000647,0.000657,-0.006375,0.000561,  50.751
    86.0,0.000621,0.000635,-0.006373,0.000561,  50.773
    86.2,0.000610,0.000621,-0.006309,0.000497,  50.786
    86.4,0.000595,0.000624,-0.006218,0.000497,  50.808
    86.6,0.000601,0.000632,-0.006085,0.000497,  50.833
    86.8,0.000616,0.000647,-0.005978,0.000460,  50.875
    87.0,0.000648,0.000642,-0.005917,0.000473,  50.898
    87.2,0.000642,0.000633,-0.005830,0.000510,  50.912
    87.4,0.000624,0.000616,-0.005839,0.000473,  50.928
    87.6,0.000611,0.000605,-0.005921,0.000460,  50.951
    87.8,0.000602,0.000593,-0.006054,0.000470,  50.983
    88.0,0.000582,0.000591,-0.006071,0.000470,  51.000
    88.2,0.000573,0.000589,-0.006054,0.000433,  51.010
    88.4,0.000576,0.000584,-0.006010,0.000457,  51.027
    88.6,0.000572,0.000585,-0.005955,0.000457,  51.045
    88.8,0.000581,0.000604,-0.005859,0.000433,  51.064
    89.0,0.000599,0.000630,-0.005754,0.000470,  51.095
    89.2,0.000613,0.000665,-0.005625,0.000470,  51.118
    89.4,0.000645,0.000663,-0.005582,0.000433,  51.138
    89.6,0.000639,0.000646,-0.005610,0.000470,  51.151
    89.8,0.000607,0.000613,-0.005681,0.000457,  51.163
    90.0,0.000575,0.000601,-0.005662,0.000406,  51.186
    90.2,0.000559,0.000589,-0.005600,0.000430,  51.191
    90.4,0.000537,0.000587,-0.005553,0.000417,  51.206
    90.6,0.000532,0.000577,-0.005712,0.000366,  51.219
    90.8,0.000535,0.000580,-0.005936,0.000403,  51.239
    91.0,0.000540,0.000584,-0.006267,0.000417,  51.276
    91.2,0.000569,0.000599,-0.006249,0.000379,  51.285
    91.4,0.000565,0.000594,-0.006108,0.000417,  51.301
    91.6,0.000546,0.000583,-0.005809,0.000430,  51.314
    91.8,0.000529,0.000568,-0.005693,0.000379,  51.327
    92.0,0.000523,0.000564,-0.005612,0.000390,  51.344
    92.2,0.000506,0.000557,-0.005540,0.000403,  51.354
    92.4,0.000504,0.000550,-0.005478,0.000353,  51.366
    92.6,0.000507,0.000552,-0.005433,0.000377,  51.395
    92.8,0.000506,0.000549,-0.005426,0.000390,  51.405
    93.0,0.000526,0.000554,-0.005366,0.000353,  51.422
    93.2,0.000532,0.000571,-0.005306,0.000390,  51.431
    93.4,0.000534,0.000590,-0.005213,0.000403,  51.439
    93.6,0.000544,0.000614,-0.005188,0.000366,  51.448
    93.8,0.000550,0.000612,-0.005215,0.000390,  51.455
    94.0,0.000534,0.000593,-0.005260,0.000390,  51.466
    94.2,0.000526,0.000555,-0.005250,0.000353,  51.474
    94.4,0.000501,0.000546,-0.005240,0.000363,  51.481
    94.6,0.000492,0.000539,-0.005213,0.000363,  51.492
    94.8,0.000479,0.000534,-0.005159,0.000326,  51.501
    95.0,0.000483,0.000536,-0.005087,0.000350,  51.523
    95.2,0.000489,0.000544,-0.004990,0.000350,  51.531
    95.4,0.000491,0.000561,-0.004956,0.000326,  51.537
    95.6,0.000513,0.000558,-0.004983,0.000363,  51.547
    95.8,0.000513,0.000547,-0.005039,0.000363,  51.558
    96.0,0.000497,0.000539,-0.005039,0.000326,  51.570
    96.2,0.000486,0.000536,-0.005029,0.000337,  51.573
    96.4,0.000483,0.000534,-0.005037,0.000323,  51.580
    96.6,0.000472,0.000529,-0.005089,0.000337,  51.592
    96.8,0.000474,0.000532,-0.005118,0.000286,  51.601
    97.0,0.000480,0.000536,-0.005192,0.000337,  51.603
    97.2,0.000485,0.000547,-0.005184,0.000313,  51.601
    97.4,0.000501,0.000556,-0.005142,0.000313,  51.606
    97.6,0.000504,0.000558,-0.005099,0.000363,  51.609
    97.8,0.000497,0.000575,-0.005012,0.000363,  51.615
    98.0,0.000498,0.000570,-0.004941,0.000326,  51.625
    98.2,0.000492,0.000553,-0.004876,0.000350,  51.624
    98.4,0.000475,0.000537,-0.004803,0.000337,  51.630
    98.6,0.000468,0.000530,-0.004793,0.000286,  51.636
    98.8,0.000464,0.000520,-0.004838,0.000297,  51.663
    99.0,0.000457,0.000523,-0.004919,0.000297,  51.671
    99.2,0.000464,0.000528,-0.004840,0.000259,  51.668
    99.4,0.000471,0.000531,-0.004733,0.000310,  51.669
    99.6,0.000475,0.000541,-0.004574,0.000323,  51.670
    99.8,0.000495,0.000554,-0.004504,0.000286,  51.672
   100.0,0.000492,0.000550,-0.004469,0.000323,  51.674
   100.2,0.000475,0.000545,-0.004504,0.000323,  51.678
   100.4,0.000464,0.000530,-0.004504,0.000286,  51.679
   100.6,0.000460,0.000517,-0.004504,0.000310,  51.683
   100.8,0.000458,0.000519,-0.004539,0.000297,  51.696
   101.0,0.000463,0.000519,-0.004502,0.000259,  51.698
   101.2,0.000469,0.000518,-0.004458,0.000310,  51.699
   101.4,0.000474,0.000530,-0.004403,0.000323,  51.686
   101.6,0.000491,0.000545,-0.004331,0.000299,  51.679
   101.8,0.000490,0.000552,-0.004254,0.000337,  51.676
   102.0,0.000477,0.000559,-0.004159,0.000350,  51.677
   102.2,0.000472,0.000561,-0.004203,0.000313,  51.677
   102.4,0.000466,0.000557,-0.004293,0.000323,  51.671
   102.6,0.000463,0.000545,-0.004462,0.000310,  51.678
   102.8,0.000449,0.000526,-0.004469,0.000310,  51.672
   103.0,0.000450,0.000524,-0.004432,0.000334,  51.679
   103.2,0.000453,0.000515,-0.004343,0.000334,  51.678
   103.4,0.000457,0.000519,-0.004388,0.000321,  51.673
   103.6,0.000463,0.000524,-0.004487,0.000321,  51.669
   103.8,0.000472,0.000529,-0.004650,0.000347,  51.663
   104.0,0.000481,0.000541,-0.004632,0.000347,  51.661
   104.2,0.000493,0.000541,-0.004561,0.000361,  51.657
   104.4,0.000493,0.000532,-0.004452,0.000361,  51.661
   104.6,0.000478,0.000520,-0.004737,0.000361,  51.654
   104.8,0.000457,0.000518,-0.005190,0.000347,  51.660
   105.0,0.000453,0.000515,-0.005821,0.000334,  51.663
   105.2,0.000453,0.000513,-0.005856,0.000334,  51.665
   105.4,0.000453,0.000522,-0.005697,0.000334,  51.665
   105.6,0.000463,0.000534,-0.005361,0.000334,  51.655
   105.8,0.000468,0.000548,-0.005200,0.000310,  51.642
   106.0,0.000480,0.000551,-0.004999,0.000361,  51.622
   106.2,0.000480,0.000554,-0.004823,0.000361,  51.620
   106.4,0.000466,0.000550,-0.004706,0.000323,  51.618
   106.6,0.000458,0.000545,-0.004625,0.000361,  51.615
   106.8,0.000455,0.000530,-0.004568,0.000347,  51.619
   107.0,0.000442,0.000515,-0.004566,0.000334,  51.616
   107.2,0.000440,0.000515,-0.004547,0.000334,  51.615
   107.4,0.000443,0.000518,-0.004557,0.000347,  51.619
   107.6,0.000442,0.000528,-0.004611,0.000347,  51.618
   107.8,0.000455,0.000537,-0.004574,0.000347,  51.610
   108.0,0.000468,0.000541,-0.004529,0.000347,  51.597
   108.2,0.000469,0.000553,-0.004450,0.000361,  51.598
   108.4,0.000492,0.000555,-0.004405,0.000361,  51.593
   108.6,0.000492,0.000551,-0.004378,0.000361,  51.591
   108.8,0.000475,0.000546,-0.004353,0.000374,  51.585
   109.0,0.000464,0.000534,-0.004326,0.000337,  51.582
   109.2,0.000461,0.000537,-0.004316,0.000323,  51.591
   109.4,0.000454,0.000530,-0.004296,0.000323,  51.593
   109.6,0.000464,0.000533,-0.004324,0.000286,  51.593
   109.8,0.000471,0.000543,-0.004398,0.000323,  51.579
   110.0,0.000472,0.000551,-0.004499,0.000323,  51.564
   110.2,0.000492,0.000570,-0.004481,0.000299,  51.565
   110.4,0.000489,0.000572,-0.004429,0.000337,  51.559
   110.6,0.000472,0.000560,-0.004307,0.000337,  51.555
   110.8,0.000464,0.000549,-0.004297,0.000299,  51.558
   111.0,0.000458,0.000544,-0.004314,0.000323,  51.557
   111.2,0.000448,0.000537,-0.004367,0.000323,  51.554
   111.4,0.000452,0.000533,-0.004392,0.000286,  51.550
   111.6,0.000452,0.000538,-0.004394,0.000323,  51.547
   111.8,0.000448,0.000537,-0.004421,0.000323,  51.553
   112.0,0.000458,0.000547,-0.004394,0.000286,  51.545
   112.2,0.000464,0.000558,-0.004332,0.000323,  51.544
   112.4,0.000466,0.000560,-0.004260,0.000323,  51.539
   112.6,0.000486,0.000575,-0.004314,0.000299,  51.529
   112.8,0.000501,0.000575,-0.004413,0.000337,  51.534
   113.0,0.000498,0.000565,-0.004619,0.000337,  51.526
   113.2,0.000485,0.000553,-0.004671,0.000299,  51.528
   113.4,0.000474,0.000546,-0.004671,0.000323,  51.528
   113.6,0.000471,0.000544,-0.004662,0.000323,  51.530
   113.8,0.000466,0.000543,-0.004590,0.000286,  51.532
   114.0,0.000474,0.000550,-0.004456,0.000323,  51.512
   114.2,0.000483,0.000558,-0.004295,0.000323,  51.491
   114.4,0.000488,0.000577,-0.004233,0.000337,  51.488
   114.6,0.000507,0.000575,-0.004215,0.000313,  51.484
   114.8,0.000504,0.000560,-0.004200,0.000350,  51.479
   115.0,0.000488,0.000544,-0.004190,0.000313,  51.478
   115.2,0.000474,0.000540,-0.004208,0.000313,  51.474
   115.4,0.000471,0.000532,-0.004260,0.000337,  51.473
   115.6,0.000460,0.000537,-0.004260,0.000337,  51.468
   115.8,0.000464,0.000540,-0.004243,0.000299,  51.462
   116.0,0.000464,0.000536,-0.004268,0.000323,  51.459
   116.2,0.000460,0.000544,-0.004275,0.000323,  51.460
   116.4,0.000468,0.000554,-0.004526,0.000286,  51.450
   116.6,0.000477,0.000560,-0.004910,0.000323,  51.443
   116.8,0.000485,0.000577,-0.005409,0.000323,  51.446
   117.0,0.000507,0.000580,-0.005580,0.000299,  51.445
   117.2,0.000507,0.000572,-0.005676,0.000337,  51.441
   117.4,0.000491,0.000565,-0.005669,0.000337,  51.440
   117.6,0.000480,0.000553,-0.005819,0.000299,  51.442
   117.8,0.000480,0.000548,-0.006014,0.000323,  51.444
   118.0,0.000472,0.000547,-0.006271,0.000323,  51.441
   118.2,0.000480,0.000540,-0.006138,0.000299,  51.436
   118.4,0.000489,0.000547,-0.005819,0.000337,  51.427
   118.6,0.000488,0.000558,-0.005349,0.000337,  51.417
   118.8,0.000504,0.000576,-0.005146,0.000326,  51.413
   119.0,0.000506,0.000577,-0.005005,0.000363,  51.409
   119.2,0.000491,0.000566,-0.004908,0.000363,  51.406
   119.4,0.000479,0.000549,-0.004836,0.000326,  51.403
   119.6,0.000473,0.000539,-0.004792,0.000337,  51.402
   119.8,0.000465,0.000532,-0.004807,0.000337,  51.395
   120.0,0.000461,0.000529,-0.004733,0.000299,  51.390
   120.2,0.000457,0.000526,-0.004617,0.000323,  51.394
   120.4,0.000452,0.000528,-0.004473,0.000323,  51.391
   120.6,0.000463,0.000539,-0.004429,0.000286,  51.387
   120.8,0.000472,0.000548,-0.004413,0.000323,  51.377
   121.0,0.000481,0.000557,-0.004478,0.000310,  51.355
   121.2,0.000486,0.000571,-0.004433,0.000310,  51.351
   121.4,0.000506,0.000571,-0.004386,0.000347,  51.346
   121.6,0.000498,0.000558,-0.004340,0.000334,  51.344
   121.8,0.000492,0.000547,-0.004330,0.000297,  51.354
   122.0,0.000480,0.000545,-0.004347,0.000310,  51.346
   122.2,0.000480,0.000540,-0.004392,0.000323,  51.353
   122.4,0.000475,0.000545,-0.004365,0.000286,  51.343
   122.6,0.000489,0.000547,-0.004305,0.000323,  51.331
   122.8,0.000498,0.000561,-0.004245,0.000337,  51.326
   123.0,0.000500,0.000577,-0.004217,0.000313,  51.322
   123.2,0.000520,0.000570,-0.004165,0.000350,  51.318
   123.4,0.000517,0.000554,-0.004155,0.000350,  51.317
   123.6,0.000494,0.000536,-0.004118,0.000350,  51.315
   123.8,0.000477,0.000528,-0.004116,0.000299,  51.316
   124.0,0.000468,0.000520,-0.004097,0.000310,  51.309
   124.2,0.000458,0.000525,-0.004132,0.000272,  51.308
   124.4,0.000460,0.000522,-0.004221,0.000272,  51.312
   124.6,0.000460,0.000525,-0.004330,0.000310,  51.307
   124.8,0.000460,0.000530,-0.004357,0.000310,  51.311
   125.0,0.000460,0.000540,-0.004349,0.000272,  51.300
   125.2,0.000472,0.000555,-0.004322,0.000310,  51.295
   125.4,0.000487,0.000572,-0.004287,0.000323,  51.293
   125.6,0.000502,0.000572,-0.004268,0.000286,  51.287
   125.8,0.000506,0.000565,-0.004250,0.000323,  51.287
   126.0,0.000499,0.000548,-0.004215,0.000337,  51.287
   126.2,0.000484,0.000543,-0.004233,0.000299,  51.289
   126.4,0.000487,0.000549,-0.004312,0.000323,  51.290
   126.6,0.000486,0.000554,-0.004411,0.000323,  51.285
   126.8,0.000495,0.000559,-0.004394,0.000299,  51.274
   127.0,0.000501,0.000564,-0.004324,0.000337,  51.263
   127.2,0.000503,0.000579,-0.004219,0.000337,  51.261
   127.4,0.000517,0.000588,-0.004182,0.000337,  51.255
   127.6,0.000510,0.000583,-0.004146,0.000361,  51.253
   127.8,0.000488,0.000566,-0.004118,0.000361,  51.251
   128.0,0.000477,0.000547,-0.004153,0.000323,  51.253
   128.2,0.000474,0.000537,-0.004225,0.000323,  51.248
   128.4,0.000460,0.000535,-0.004334,0.000323,  51.241
   128.6,0.000464,0.000540,-0.004379,0.000286,  51.224
   128.8,0.000457,0.000543,-0.004423,0.000323,  51.226
   129.0,0.000457,0.000547,-0.004458,0.000323,  51.224
   129.2,0.000457,0.000552,-0.004431,0.000286,  51.217
   129.4,0.000459,0.000564,-0.004369,0.000323,  51.209
   129.6,0.000479,0.000572,-0.004279,0.000323,  51.206
   129.8,0.000497,0.000586,-0.004270,0.000286,  51.205
   130.0,0.000500,0.000586,-0.004262,0.000323,  51.205
   130.2,0.000490,0.000571,-0.004289,0.000310,  51.205
   130.4,0.000483,0.000550,-0.004289,0.000272,  51.211
   130.6,0.000472,0.000547,-0.004334,0.000310,  51.214
   130.8,0.000468,0.000550,-0.004388,0.000310,  51.207
   131.0,0.000485,0.000561,-0.004309,0.000286,  51.195
   131.2,0.000494,0.000565,-0.004185,0.000337,  51.192
   131.4,0.000500,0.000569,-0.004033,0.000350,  51.187
   131.6,0.000503,0.000582,-0.004462,0.000326,  51.185
   131.8,0.000510,0.000578,-0.005183,0.000337,  51.184
   132.0,0.000504,0.000565,-0.006194,0.000337,  51.179
   132.2,0.000485,0.000545,-0.006219,0.000299,  51.176
   132.4,0.000474,0.000537,-0.005908,0.000323,  51.178
   132.6,0.000471,0.000539,-0.005258,0.000323,  51.169
   132.8,0.000466,0.000540,-0.005115,0.000286,  51.167
   133.0,0.000474,0.000534,-0.005063,0.000323,  51.168
   133.2,0.000471,0.000532,-0.005092,0.000323,  51.173
   133.4,0.000475,0.000536,-0.004931,0.000323,  51.162
   133.6,0.000484,0.000545,-0.004743,0.000299,  51.159
   133.8,0.000493,0.000561,-0.004520,0.000323,  51.145
   134.0,0.000501,0.000583,-0.004421,0.000286,  51.143
   134.2,0.000518,0.000587,-0.004332,0.000286,  51.139
   134.4,0.000521,0.000580,-0.004314,0.000323,  51.143
   134.6,0.000504,0.000560,-0.004324,0.000323,  51.144
   134.8,0.000489,0.000562,-0.004314,0.000286,  51.148
   135.0,0.000495,0.000567,-0.004297,0.000323,  51.143
   135.2,0.000497,0.000574,-0.004272,0.000323,  51.141
   135.4,0.000520,0.000576,-0.004210,0.000299,  51.125
   135.6,0.000515,0.000579,-0.004140,0.000350,  51.124
   135.8,0.000515,0.000582,-0.004027,0.000350,  51.121
   136.0,0.000509,0.000577,-0.003983,0.000313,  51.120
   136.2,0.000493,0.000567,-0.003990,0.000350,  51.122
   136.4,0.000488,0.000558,-0.004025,0.000350,  51.118
   136.6,0.000475,0.000548,-0.004078,0.000313,  51.117
   136.8,0.000468,0.000548,-0.004150,0.000337,  51.116
   137.0,0.000475,0.000543,-0.004266,0.000337,  51.110
   137.2,0.000479,0.000540,-0.004291,0.000313,  51.093
   137.4,0.000474,0.000534,-0.004291,0.000337,  51.097
   137.6,0.000479,0.000544,-0.004264,0.000337,  51.100
   137.8,0.000472,0.000544,-0.004264,0.000313,  51.092
   138.0,0.000474,0.000546,-0.004274,0.000337,  51.083
   138.2,0.000494,0.000563,-0.004276,0.000337,  51.081
   138.4,0.000506,0.000577,-0.004740,0.000313,  51.083
   138.6,0.000499,0.000569,-0.005460,0.000337,  51.084
   138.8,0.000497,0.000566,-0.006410,0.000337,  51.091
   139.0,0.000479,0.000549,-0.006383,0.000299,  51.090
   139.2,0.000477,0.000548,-0.006036,0.000323,  51.085
   139.4,0.000494,0.000561,-0.005332,0.000323,  51.079
   139.6,0.000506,0.000573,-0.005047,0.000299,  51.072
   139.8,0.000509,0.000572,-0.004782,0.000337,  51.062
   140.0,0.000502,0.000575,-0.004596,0.000337,  51.058
   140.2,0.000496,0.000570,-0.004462,0.000313,  51.062
   140.4,0.000494,0.000561,-0.004381,0.000337,  51.056
   140.6,0.000480,0.000555,-0.004379,0.000337,  51.058
   140.8,0.000479,0.000543,-0.004351,0.000299,  51.051
   141.0,0.000466,0.000540,-0.004342,0.000323,  51.046
   141.2,0.000456,0.000537,-0.004379,0.000323,  51.048
   141.4,0.000466,0.000541,-0.004396,0.000286,  51.046
   141.6,0.000466,0.000541,-0.004413,0.000323,  51.047
   141.8,0.000459,0.000539,-0.004441,0.000323,  51.050
   142.0,0.000469,0.000534,-0.004413,0.000286,  51.039
   142.2,0.000466,0.000546,-0.004379,0.000323,  51.036
   142.4,0.000468,0.000555,-0.004316,0.000323,  51.026
   142.6,0.000488,0.000573,-0.004316,0.000323,  51.023
   142.8,0.000500,0.000571,-0.004344,0.000299,  51.029
   143.0,0.000493,0.000557,-0.004423,0.000323,  51.032
   143.2,0.000491,0.000547,-0.004406,0.000286,  51.035
   143.4,0.000472,0.000554,-0.004379,0.000286,  51.031
   143.6,0.000471,0.000560,-0.004344,0.000323,  51.020
   143.8,0.000488,0.000587,-0.004282,0.000323,  51.013
   144.0,0.000503,0.000589,-0.004202,0.000299,  51.007
   144.2,0.000499,0.000579,-0.004120,0.000350,  51.006
   144.4,0.000500,0.000567,-0.004014,0.000350,  51.001
   144.6,0.000488,0.000555,-0.004351,0.000313,  51.000
   144.8,0.000477,0.000547,-0.004842,0.000337,  51.002
   145.0,0.000479,0.000533,-0.005491,0.000337,  50.996
   145.2,0.000469,0.000530,-0.005543,0.000299,  50.996
   145.4,0.000459,0.000529,-0.005365,0.000323,  50.989
   145.6,0.000466,0.000529,-0.004981,0.000323,  50.994
   145.8,0.000466,0.000539,-0.004910,0.000286,  50.997
   146.0,0.000469,0.000539,-0.004902,0.000323,  51.003
   146.2,0.000472,0.000540,-0.004966,0.000323,  50.995
   146.4,0.000480,0.000543,-0.004842,0.000299,  50.990
   146.6,0.000489,0.000555,-0.004699,0.000337,  50.983
   146.8,0.000491,0.000566,-0.004503,0.000337,  50.984
   147.0,0.000510,0.000590,-0.004423,0.000313,  50.988
   147.2,0.000506,0.000590,-0.004413,0.000337,  50.990
   147.4,0.000503,0.000576,-0.004441,0.000337,  50.997
   147.6,0.000494,0.000563,-0.004379,0.000313,  50.992
   147.8,0.000493,0.000565,-0.004334,0.000337,  50.982
   148.0,0.000512,0.000568,-0.004254,0.000350,  50.959
   148.2,0.000521,0.000588,-0.004192,0.000326,  50.954
   148.4,0.000521,0.000588,-0.004130,0.000377,  50.954
   148.6,0.000514,0.000583,-0.004095,0.000377,  50.957
   148.8,0.000505,0.000571,-0.004130,0.000326,  50.954
   149.0,0.000500,0.000559,-0.004192,0.000350,  50.953
   149.2,0.000486,0.000552,-0.004309,0.000350,  50.955
   149.4,0.000485,0.000541,-0.004388,0.000313,  50.954
   149.6,0.000472,0.000534,-0.004495,0.000337,  50.956
   149.8,0.000465,0.000530,-0.004594,0.000337,  50.953
   150.0,0.000469,0.000542,-0.004646,0.000299,  50.950
   150.2,0.000469,0.000544,-0.004666,0.000323,  50.953
   150.4,0.000472,0.000536,-0.004666,0.000323,  50.956
   150.6,0.000472,0.000543,-0.004584,0.000299,  50.952
   150.8,0.000483,0.000549,-0.004450,0.000337,  50.947
   151.0,0.000492,0.000568,-0.004262,0.000337,  50.948
   151.2,0.000491,0.000587,-0.004208,0.000313,  50.944
   151.4,0.000510,0.000584,-0.004190,0.000337,  50.951
   151.6,0.000517,0.000584,-0.004260,0.000337,  50.954
   151.8,0.000506,0.000573,-0.004215,0.000350,  50.950
   152.0,0.000510,0.000574,-0.004143,0.000337,  50.937
   152.2,0.000520,0.000589,-0.004046,0.000374,  50.935
   152.4,0.000521,0.000606,-0.004046,0.000350,  50.934
   152.6,0.000544,0.000602,-0.004056,0.000388,  50.931
   152.8,0.000541,0.000601,-0.004103,0.000401,  50.929
   153.0,0.000524,0.000589,-0.004185,0.000401,  50.928
   153.2,0.000517,0.000580,-0.004212,0.000401,  50.927
   153.4,0.000510,0.000573,-0.004264,0.000388,  50.930
   153.6,0.000494,0.000567,-0.004316,0.000388,  50.924
   153.8,0.000492,0.000562,-0.004279,0.000388,  50.929
   154.0,0.000489,0.000555,-0.004233,0.000374,  50.923
   154.2,0.000482,0.000555,-0.004151,0.000374,  50.923
   154.4,0.000489,0.000552,-0.004176,0.000388,  50.926
   154.6,0.000482,0.000555,-0.004221,0.000374,  50.929
   154.8,0.000482,0.000547,-0.004303,0.000374,  50.933
   155.0,0.000485,0.000552,-0.004295,0.000388,  50.924
   155.2,0.000483,0.000562,-0.004277,0.000374,  50.921
   155.4,0.000500,0.000576,-0.004208,0.000374,  50.918
   155.6,0.000509,0.000594,-0.004182,0.000388,  50.922
   155.8,0.000502,0.000597,-0.004200,0.000374,  50.929
   156.0,0.000509,0.000584,-0.004243,0.000374,  50.924
   156.2,0.000509,0.000576,-0.004208,0.000388,  50.920
   156.4,0.000508,0.000583,-0.004173,0.000388,  50.911
   156.6,0.000524,0.000589,-0.004120,0.000388,  50.910
   156.8,0.000534,0.000609,-0.004111,0.000401,  50.912
   157.0,0.000526,0.000603,-0.004111,0.000401,  50.912
   157.2,0.000521,0.000598,-0.004128,0.000401,  50.916
   157.4,0.000503,0.000582,-0.004153,0.000401,  50.912
   157.6,0.000494,0.000569,-0.004153,0.000374,  50.919
   157.8,0.000480,0.000565,-0.004163,0.000374,  50.916
   158.0,0.000485,0.000555,-0.004227,0.000388,  50.922
   158.2,0.000489,0.000545,-0.004361,0.000374,  50.920
   158.4,0.000479,0.000545,-0.004514,0.000374,  50.923
   158.6,0.000486,0.000548,-0.004532,0.000388,  50.926
   158.8,0.000479,0.000546,-0.004522,0.000374,  50.931
   159.0,0.000485,0.000547,-0.004476,0.000374,  50.932
   159.2,0.000485,0.000551,-0.004411,0.000388,  50.927
   159.4,0.000492,0.000557,-0.004305,0.000374,  50.921
   159.6,0.000491,0.000576,-0.004163,0.000374,  50.926
   159.8,0.000497,0.000594,-0.004146,0.000388,  50.933
   160.0,0.000503,0.000595,-0.004200,0.000374,  50.936
   160.2,0.000502,0.000596,-0.004316,0.000374,  50.937
   160.4,0.000512,0.000589,-0.004237,0.000350,  50.931
   160.6,0.000515,0.000594,-0.004113,0.000388,  50.929
   160.8,0.000514,0.000604,-0.003961,0.000388,  50.926
   161.0,0.000524,0.000614,-0.003909,0.000350,  50.929
   161.2,0.000524,0.000606,-0.003881,0.000388,  50.925
   161.4,0.000514,0.000602,-0.003891,0.000374,  50.927
   161.6,0.000509,0.000582,-0.003961,0.000374,  50.928
   161.8,0.000497,0.000569,-0.004068,0.000388,  50.928
   162.0,0.000494,0.000570,-0.004239,0.000374,  50.928
   162.2,0.000488,0.000561,-0.004472,0.000374,  50.930
   162.4,0.000492,0.000551,-0.004497,0.000388,  50.933
   162.6,0.000489,0.000554,-0.004425,0.000374,  50.936
   162.8,0.000482,0.000551,-0.004272,0.000374,  50.939
   163.0,0.000486,0.000551,-0.004235,0.000350,  50.944
   163.2,0.000482,0.000548,-0.004208,0.000337,  50.945
   163.4,0.000482,0.000554,-0.004190,0.000337,  50.945
   163.6,0.000485,0.000558,-0.004173,0.000313,  50.942
   163.8,0.000483,0.000571,-0.004175,0.000337,  50.941
   164.0,0.000497,0.000583,-0.004212,0.000337,  50.941
   164.2,0.000503,0.000604,-0.004185,0.000313,  50.946
   164.4,0.000509,0.000605,-0.004140,0.000337,  50.949
   164.6,0.000515,0.000607,-0.004085,0.000337,  50.943
   164.8,0.000529,0.000601,-0.004016,0.000350,  50.935
   165.0,0.000524,0.000600,-0.003963,0.000374,  50.939
   165.2,0.000521,0.000605,-0.003893,0.000374,  50.940
   165.4,0.000512,0.000607,-0.003911,0.000350,  50.939
   165.6,0.000499,0.000597,-0.003965,0.000337,  50.945
   165.8,0.000503,0.000590,-0.004072,0.000337,  50.948
   166.0,0.000494,0.000581,-0.004097,0.000313,  50.942
   166.2,0.000488,0.000569,-0.004097,0.000337,  50.947
   166.4,0.000492,0.000564,-0.004097,0.000337,  50.949
   166.6,0.000496,0.000560,-0.004159,0.000313,  50.944
   166.8,0.000493,0.000555,-0.004231,0.000337,  50.948
   167.0,0.000493,0.000553,-0.004340,0.000337,  50.944
   167.2,0.000486,0.000562,-0.004321,0.000313,  50.939
   167.4,0.000496,0.000556,-0.004204,0.000337,  50.945
   167.6,0.000492,0.000558,-0.004068,0.000337,  50.944
   167.8,0.000495,0.000561,-0.003979,0.000313,  50.940
   168.0,0.000495,0.000567,-0.003889,0.000350,  50.935
   168.2,0.000501,0.000584,-0.003819,0.000350,  50.936
   168.4,0.000500,0.000600,-0.003847,0.000313,  50.938
   168.6,0.000510,0.000602,-0.003918,0.000337,  50.935
   168.8,0.000517,0.000602,-0.004064,0.000337,  50.935
   169.0,0.000515,0.000605,-0.004047,0.000313,  50.926
   169.2,0.000529,0.000599,-0.003950,0.000350,  50.924
   169.4,0.000529,0.000597,-0.003808,0.000350,  50.928
   169.6,0.000515,0.000592,-0.003816,0.000363,  50.926
   169.8,0.000510,0.000585,-0.003825,0.000350,  50.923
   170.0,0.000507,0.000580,-0.003895,0.000374,  50.923
   170.2,0.000491,0.000573,-0.003958,0.000337,  50.922
   170.4,0.000492,0.000560,-0.004039,0.000361,  50.921
   170.6,0.000485,0.000559,-0.004183,0.000361,  50.921
   170.8,0.000485,0.000558,-0.004200,0.000361,  50.922
   171.0,0.000485,0.000548,-0.004163,0.000361,  50.920
   171.2,0.000474,0.000551,-0.004082,0.000361,  50.920
   171.4,0.000482,0.000551,-0.003973,0.000361,  50.915
   171.6,0.000479,0.000546,-0.003990,0.000361,  50.919
   171.8,0.000471,0.000546,-0.004027,0.000361,  50.918
   172.0,0.000479,0.000551,-0.004109,0.000361,  50.910
   172.2,0.000482,0.000555,-0.004020,0.000374,  50.905
   172.4,0.000477,0.000560,-0.003921,0.000374,  50.908
   172.6,0.000488,0.000565,-0.003751,0.000374,  50.906
   172.8,0.000491,0.000583,-0.003751,0.000350,  50.901
   173.0,0.000493,0.000592,-0.003823,0.000337,  50.887
   173.2,0.000509,0.000594,-0.003950,0.000337,  50.885
   173.4,0.000518,0.000601,-0.003932,0.000313,  50.879
   173.6,0.000508,0.000593,-0.003845,0.000350,  50.873
   173.8,0.000506,0.000591,-0.003730,0.000350,  50.871
   174.0,0.000488,0.000577,-0.003686,0.000313,  50.867
   174.2,0.000482,0.000567,-0.003676,0.000337,  50.865
   174.4,0.000482,0.000565,-0.003719,0.000337,  50.865
   174.6,0.000489,0.000559,-0.003791,0.000299,  50.858
   174.8,0.000486,0.000552,-0.003925,0.000323,  50.859
   175.0,0.000475,0.000552,-0.004121,0.000323,  50.857
   175.2,0.000483,0.000551,-0.004272,0.000286,  50.852
   175.4,0.000479,0.000545,-0.004441,0.000323,  50.845
   175.6,0.000475,0.000548,-0.004637,0.000323,  50.833
   175.8,0.000475,0.000552,-0.004813,0.000286,  50.829
   176.0,0.000475,0.000549,-0.005026,0.000323,  50.830
   176.2,0.000471,0.000555,-0.005232,0.000323,  50.827
   176.4,0.000471,0.000555,-0.005143,0.000299,  50.818
   176.6,0.000482,0.000555,-0.004930,0.000337,  50.817
   176.8,0.000477,0.000566,-0.004585,0.000337,  50.819
   177.0,0.000485,0.000581,-0.004424,0.000313,  50.813
   177.2,0.000485,0.000583,-0.004282,0.000337,  50.814
   177.4,0.000483,0.000590,-0.004185,0.000337,  50.803
   177.6,0.000500,0.000595,-0.004086,0.000313,  50.798
   177.8,0.000509,0.000585,-0.003969,0.000350,  50.793
   178.0,0.000496,0.000573,-0.003872,0.000350,  50.790
   178.2,0.000494,0.000556,-0.003880,0.000313,  50.789
   178.4,0.000479,0.000544,-0.003915,0.000337,  50.789
   178.6,0.000471,0.000545,-0.004014,0.000337,  50.784
   178.8,0.000472,0.000549,-0.004004,0.000337,  50.782
   179.0,0.000469,0.000541,-0.003967,0.000299,  50.782
   179.2,0.000462,0.000542,-0.003913,0.000323,  50.777
   179.4,0.000469,0.000537,-0.003886,0.000286,  50.771
   179.6,0.000466,0.000534,-0.003901,0.000286,  50.771
   179.8,0.000462,0.000537,-0.003876,0.000323,  50.770
   180.0,0.000472,0.000541,-0.003893,0.000323,  50.769
   180.2,0.000472,0.000541,-0.003903,0.000286,  50.771
   180.4,0.000471,0.000543,-0.003965,0.000323,  50.769
   180.6,0.000485,0.000553,-0.004037,0.000323,  50.760
   180.8,0.000488,0.000557,-0.004288,0.000299,  50.758
   181.0,0.000486,0.000569,-0.004637,0.000350,  50.756
   181.2,0.000500,0.000588,-0.005112,0.000350,  50.758
   181.4,0.000503,0.000595,-0.005094,0.000313,  50.752
   181.6,0.000505,0.000597,-0.004864,0.000350,  50.743
   181.8,0.000515,0.000599,-0.004455,0.000350,  50.735
   182.0,0.000524,0.000607,-0.004276,0.000326,  50.729
   182.2,0.000521,0.000600,-0.004108,0.000363,  50.736
   182.4,0.000509,0.000586,-0.003964,0.000363,  50.734
   182.6,0.000495,0.000567,-0.003865,0.000326,  50.733
   182.8,0.000489,0.000557,-0.003810,0.000350,  50.730
   183.0,0.000482,0.000552,-0.003818,0.000350,  50.726
   183.2,0.000489,0.000552,-0.004066,0.000313,  50.726
   183.4,0.000479,0.000544,-0.004486,0.000337,  50.729
   183.6,0.000475,0.000548,-0.005058,0.000337,  50.726
   183.8,0.000472,0.000543,-0.005038,0.000313,  50.726
   184.0,0.000468,0.000540,-0.004806,0.000337,  50.723
   184.2,0.000479,0.000550,-0.004385,0.000337,  50.708
   184.4,0.000479,0.000555,-0.004313,0.000313,  50.706
   184.6,0.000477,0.000554,-0.004350,0.000337,  50.713
   184.8,0.000488,0.000559,-0.004468,0.000337,  50.704
   185.0,0.000491,0.000557,-0.004379,0.000313,  50.701
   185.2,0.000494,0.000559,-0.004228,0.000337,  50.701
   185.4,0.000493,0.000571,-0.004024,0.000337,  50.697
   185.6,0.000496,0.000581,-0.004212,0.000313,  50.695
   185.8,0.000503,0.000585,-0.004579,0.000350,  50.687
   186.0,0.000499,0.000591,-0.005106,0.000350,  50.676
   186.2,0.000512,0.000597,-0.005106,0.000313,  50.669
   186.4,0.000518,0.000590,-0.004893,0.000350,  50.668
   186.6,0.000505,0.000576,-0.004527,0.000350,  50.667
   186.8,0.000500,0.000568,-0.004420,0.000313,  50.667
   187.0,0.000482,0.000565,-0.004358,0.000337,  50.662
   187.2,0.000468,0.000558,-0.004348,0.000337,  50.665
   187.4,0.000475,0.000562,-0.004222,0.000299,  50.660
   187.6,0.000479,0.000562,-0.004078,0.000323,  50.662
   187.8,0.000474,0.000558,-0.003915,0.000323,  50.664
   188.0,0.000482,0.000553,-0.003833,0.000323,  50.663
   188.2,0.000479,0.000553,-0.003771,0.000286,  50.667
   188.4,0.000474,0.000553,-0.003771,0.000310,  50.661
   188.6,0.000482,0.000553,-0.003771,0.000272,  50.663
   188.8,0.000479,0.000556,-0.003808,0.000272,  50.664
   189.0,0.000477,0.000557,-0.003863,0.000310,  50.659
   189.2,0.000491,0.000563,-0.003845,0.000323,  50.661
   189.4,0.000494,0.000567,-0.003793,0.000299,  50.662
   189.6,0.000496,0.000576,-0.003730,0.000337,  50.660
   189.8,0.000512,0.000591,-0.003633,0.000350,  50.656
   190.0,0.000515,0.000600,-0.003598,0.000326,  50.646
   190.2,0.000514,0.000602,-0.003583,0.000350,  50.644
   190.4,0.000528,0.000612,-0.003550,0.000350,  50.641
   190.6,0.000531,0.000609,-0.003523,0.000313,  50.637
   190.8,0.000524,0.000599,-0.003503,0.000350,  50.638
   191.0,0.000512,0.000590,-0.003484,0.000350,  50.640
   191.2,0.000501,0.000570,-0.003546,0.000313,  50.641
   191.4,0.000498,0.000568,-0.003645,0.000337,  50.637
   191.6,0.000488,0.000571,-0.003789,0.000337,  50.632
   191.8,0.000492,0.000569,-0.003941,0.000313,  50.634
   192.0,0.000492,0.000566,-0.004127,0.000337,  50.628
   192.2,0.000485,0.000558,-0.004331,0.000337,  50.629
   192.4,0.000492,0.000562,-0.004358,0.000313,  50.627
   192.6,0.000492,0.000562,-0.004341,0.000337,  50.623
   192.8,0.000485,0.000558,-0.004278,0.000337,  50.625
   193.0,0.000492,0.000569,-0.004269,0.000313,  50.623
   193.2,0.000495,0.000568,-0.004251,0.000337,  50.625
   193.4,0.000497,0.000567,-0.004269,0.000337,  50.628
   193.6,0.000513,0.000566,-0.004152,0.000313,  50.623
   193.8,0.000523,0.000568,-0.003991,0.000350,  50.624
   194.0,0.000521,0.000585,-0.003752,0.000350,  50.620
   194.2,0.000535,0.000597,-0.003655,0.000363,  50.614
   194.4,0.000535,0.000599,-0.003602,0.000401,  50.605
   194.6,0.000531,0.000609,-0.003587,0.000401,  50.600
   194.8,0.000535,0.000614,-0.003550,0.000377,  50.601
   195.0,0.000532,0.000599,-0.003486,0.000363,  50.600
   195.2,0.000518,0.000585,-0.003447,0.000363,  50.599
   195.4,0.000513,0.000572,-0.004018,0.000326,  50.598
   195.6,0.000504,0.000562,-0.004891,0.000337,  50.595
   195.8,0.000504,0.000562,-0.006073,0.000337,  50.590
   196.0,0.000494,0.000568,-0.006144,0.000313,  50.577
   196.2,0.000504,0.000565,-0.005816,0.000337,  50.574
   196.4,0.000497,0.000562,-0.005087,0.000337,  50.573
   196.6,0.000497,0.000562,-0.004953,0.000313,  50.577
   196.8,0.000494,0.000559,-0.004943,0.000337,  50.569
   197.0,0.000486,0.000557,-0.005042,0.000337,  50.569
   197.2,0.000497,0.000562,-0.004926,0.000350,  50.573
   197.4,0.000494,0.000565,-0.004748,0.000299,  50.570
   197.6,0.000493,0.000570,-0.004534,0.000337,  50.577
   197.8,0.000509,0.000581,-0.004403,0.000299,  50.573
   198.0,0.000515,0.000588,-0.004313,0.000299,  50.572
   198.2,0.000514,0.000603,-0.004253,0.000350,  50.571
   198.4,0.000531,0.000620,-0.004211,0.000350,  50.557
   198.6,0.000534,0.000625,-0.004069,0.000326,  50.544
   198.8,0.000526,0.000622,-0.003920,0.000363,  50.543
   199.0,0.000528,0.000620,-0.003760,0.000363,  50.539
   199.2,0.000515,0.000612,-0.003902,0.000326,  50.539
   199.4,0.000502,0.000595,-0.004178,0.000350,  50.535
   199.6,0.000506,0.000580,-0.004630,0.000350,  50.533
   199.8,0.000494,0.000575,-0.004583,0.000313,  50.533
   200.0,0.000483,0.000569,-0.004360,0.000337,  50.524
   200.2,0.000494,0.000574,-0.004010,0.000337,  50.525
   200.4,0.000494,0.000581,-0.003929,0.000313,  50.523
   200.6,0.000490,0.000583,-0.003911,0.000337,  50.521
   200.8,0.000497,0.000580,-0.003958,0.000337,  50.519
   201.0,0.000497,0.000577,-0.003939,0.000313,  50.515
   201.2,0.000500,0.000577,-0.003894,0.000337,  50.514
   201.4,0.000497,0.000577,-0.003849,0.000337,  50.519
   201.6,0.000504,0.000580,-0.003804,0.000313,  50.520
   201.8,0.000510,0.000583,-0.003767,0.000337,  50.521
   202.0,0.000509,0.000577,-0.003733,0.000337,  50.526
   202.2,0.000526,0.000580,-0.004162,0.000313,  50.524
   202.4,0.000535,0.000589,-0.004831,0.000350,  50.520
   202.6,0.000537,0.000602,-0.005723,0.000350,  50.513
   202.8,0.000550,0.000624,-0.005671,0.000326,  50.502
   203.0,0.000547,0.000625,-0.005280,0.000363,  50.498
   203.2,0.000534,0.000620,-0.004517,0.000363,  50.498
   203.4,0.000523,0.000610,-0.004366,0.000326,  50.496
   203.6,0.000517,0.000599,-0.004322,0.000350,  50.494
   203.8,0.000509,0.000588,-0.004418,0.000350,  50.498
   204.0,0.000510,0.000583,-0.004597,0.000313,  50.496
   204.2,0.000507,0.000573,-0.004882,0.000350,  50.496
   204.4,0.000500,0.000569,-0.005290,0.000350,  50.499
   204.6,0.000507,0.000577,-0.005236,0.000350,  50.499
   204.8,0.000507,0.000573,-0.005013,0.000374,  50.497
   205.0,0.000510,0.000576,-0.004657,0.000374,  50.506
   205.2,0.000503,0.000577,-0.004476,0.000388,  50.507
   205.4,0.000507,0.000571,-0.004306,0.000374,  50.500
   205.6,0.000503,0.000571,-0.004154,0.000374,  50.509
   205.8,0.000503,0.000574,-0.004055,0.000388,  50.512
   206.0,0.000503,0.000574,-0.003983,0.000374,  50.514
   206.2,0.000505,0.000580,-0.003948,0.000374,  50.519
   206.4,0.000508,0.000591,-0.003869,0.000388,  50.518
   206.6,0.000517,0.000600,-0.003791,0.000388,  50.518
   206.8,0.000522,0.000614,-0.003714,0.000388,  50.509
   207.0,0.000531,0.000633,-0.003607,0.000363,  50.504
   207.2,0.000548,0.000627,-0.003500,0.000401,  50.506
   207.4,0.000537,0.000623,-0.003375,0.000388,  50.501
   207.6,0.000532,0.000606,-0.003321,0.000350,  50.508
   207.8,0.000518,0.000593,-0.003293,0.000388,  50.503
   208.0,0.000512,0.000586,-0.003291,0.000374,  50.508
   208.2,0.000503,0.000579,-0.003344,0.000374,  50.506
   208.4,0.000504,0.000571,-0.003342,0.000388,  50.506
   208.6,0.000494,0.000573,-0.003342,0.000374,  50.508
   208.8,0.000494,0.000581,-0.003324,0.000374,  50.511
   209.0,0.000494,0.000576,-0.003305,0.000350,  50.510
   209.2,0.000486,0.000573,-0.003285,0.000337,  50.514
   209.4,0.000497,0.000574,-0.003293,0.000337,  50.519
   209.6,0.000494,0.000572,-0.003365,0.000313,  50.523
   209.8,0.000486,0.000569,-0.003517,0.000337,  50.523
   210.0,0.000497,0.000573,-0.003698,0.000337,  50.526
   210.2,0.000494,0.000579,-0.003760,0.000313,  50.524
   210.4,0.000493,0.000581,-0.003804,0.000337,  50.529
   210.6,0.000509,0.000586,-0.003814,0.000337,  50.531
   210.8,0.000515,0.000585,-0.003762,0.000313,  50.528
   211.0,0.000517,0.000597,-0.003665,0.000350,  50.521
   211.2,0.000534,0.000608,-0.003550,0.000363,  50.516
   211.4,0.000540,0.000630,-0.003480,0.000326,  50.519
   211.6,0.000526,0.000620,-0.003428,0.000377,  50.520
   211.8,0.000524,0.000608,-0.003428,0.000377,  50.523
   212.0,0.000506,0.000584,-0.003400,0.000326,  50.525
   212.2,0.000493,0.000572,-0.003381,0.000350,  50.528
   212.4,0.000497,0.000567,-0.003386,0.000350,  50.528
   212.6,0.000494,0.000567,-0.003386,0.000313,  50.529
   212.8,0.000494,0.000564,-0.003421,0.000350,  50.530
   213.0,0.000497,0.000569,-0.003474,0.000350,  50.535
   213.2,0.000501,0.000576,-0.003670,0.000313,  50.532
   213.4,0.000501,0.000570,-0.003956,0.000337,  50.536
   213.6,0.000497,0.000579,-0.004341,0.000337,  50.537
   213.8,0.000501,0.000577,-0.004383,0.000313,  50.534
   214.0,0.000501,0.000572,-0.004302,0.000337,  50.532
   214.2,0.000497,0.000574,-0.004078,0.000337,  50.538
   214.4,0.000501,0.000571,-0.003979,0.000313,  50.536
   214.6,0.000504,0.000570,-0.003907,0.000337,  50.541
   214.8,0.000513,0.000581,-0.003837,0.000337,  50.540
   215.0,0.000512,0.000583,-0.003758,0.000313,  50.538
   215.2,0.000532,0.000587,-0.003698,0.000350,  50.528
   215.4,0.000541,0.000607,-0.003640,0.000363,  50.524
   215.6,0.000540,0.000627,-0.003525,0.000326,  50.517
   215.8,0.000553,0.000617,-0.003426,0.000377,  50.519
   216.0,0.000547,0.000608,-0.003316,0.000390,  50.521
   216.2,0.000528,0.000584,-0.003334,0.000390,  50.525
   216.4,0.000517,0.000572,-0.003389,0.000353,  50.525
   216.6,0.000510,0.000567,-0.003565,0.000363,  50.525
   216.8,0.000497,0.000567,-0.003600,0.000326,  50.522
   217.0,0.000504,0.000562,-0.003600,0.000313,  50.524
   217.2,0.000504,0.000562,-0.003583,0.000350,  50.520
   217.4,0.000497,0.000569,-0.003556,0.000350,  50.524
   217.6,0.000501,0.000569,-0.003536,0.000313,  50.521
   217.8,0.000504,0.000573,-0.003509,0.000350,  50.521
   218.0,0.000500,0.000576,-0.003454,0.000350,  50.521
   218.2,0.000507,0.000575,-0.003445,0.000313,  50.520
   218.4,0.000513,0.000581,-0.003452,0.000350,  50.516
   218.6,0.000509,0.000578,-0.003489,0.000350,  50.521
   218.8,0.000520,0.000586,-0.003499,0.000313,  50.526
   219.0,0.000529,0.000584,-0.003517,0.000350,  50.527
   219.2,0.000534,0.000597,-0.003536,0.000350,  50.526
   219.4,0.000553,0.000600,-0.003466,0.000326,  50.518
   219.6,0.000559,0.000609,-0.003361,0.000363,  50.517
   219.8,0.000558,0.000618,-0.003211,0.000377,  50.512
   220.0,0.000569,0.000629,-0.003214,0.000339,  50.512
   220.2,0.000555,0.000621,-0.003295,0.000377,  50.511
   220.4,0.000543,0.000610,-0.003457,0.000377,  50.513
   220.6,0.000521,0.000586,-0.003475,0.000339,  50.503
   220.8,0.000508,0.000573,-0.003490,0.000363,  50.508
   221.0,0.000512,0.000569,-0.003488,0.000363,  50.502
   221.2,0.000509,0.000569,-0.003960,0.000339,  50.503
   221.4,0.000499,0.000564,-0.004682,0.000363,  50.498
   221.6,0.000503,0.000564,-0.005644,0.000363,  50.495
   221.8,0.000503,0.000566,-0.005634,0.000326,  50.491
   222.0,0.000499,0.000561,-0.005296,0.000350,  50.486
   222.2,0.000503,0.000566,-0.004618,0.000350,  50.482
   222.4,0.000500,0.000566,-0.004405,0.000313,  50.481
   222.6,0.000500,0.000563,-0.004280,0.000350,  50.479
   222.8,0.000493,0.000566,-0.004263,0.000350,  50.479
   223.0,0.000500,0.000563,-0.004147,0.000313,  50.486
   223.2,0.000507,0.000567,-0.004040,0.000350,  50.489
   223.4,0.000509,0.000577,-0.003958,0.000350,  50.492
   223.6,0.000529,0.000588,-0.003789,0.000326,  50.487
   223.8,0.000544,0.000594,-0.003612,0.000363,  50.471
   224.0,0.000546,0.000608,-0.003375,0.000377,  50.458
   224.2,0.000549,0.000621,-0.003313,0.000339,  50.457
   224.4,0.000552,0.000617,-0.003330,0.000377,  50.457
   224.6,0.000546,0.000598,-0.003410,0.000377,  50.455
   224.8,0.000531,0.000573,-0.003391,0.000339,  50.453
   225.0,0.000517,0.000558,-0.003361,0.000363,  50.440
   225.2,0.000510,0.000554,-0.003340,0.000363,  50.439
   225.4,0.000500,0.000562,-0.003392,0.000363,  50.437
   225.6,0.000507,0.000557,-0.003439,0.000326,  50.441
   225.8,0.000510,0.000559,-0.003565,0.000363,  50.443
   226.0,0.000500,0.000572,-0.003602,0.000339,  50.447
   226.2,0.000504,0.000566,-0.003672,0.000326,  50.448
   226.4,0.000504,0.000572,-0.003682,0.000363,  50.451
   226.6,0.000497,0.000575,-0.003735,0.000363,  50.452
   226.8,0.000501,0.000572,-0.004010,0.000339,  50.452
   227.0,0.000504,0.000577,-0.004368,0.000363,  50.459
   227.2,0.000497,0.000575,-0.004796,0.000363,  50.478
   227.4,0.000504,0.000584,-0.004841,0.000339,  50.485
   227.6,0.000517,0.000594,-0.004734,0.000363,  50.492
   227.8,0.000532,0.000609,-0.004451,0.000363,  50.487
   228.0,0.000558,0.000618,-0.004275,0.000339,  50.475
   228.2,0.000564,0.000622,-0.004089,0.000363,  50.477
   228.4,0.000567,0.000626,-0.003852,0.000363,  50.474
   228.6,0.000561,0.000635,-0.003700,0.000339,  50.476
   228.8,0.000551,0.000628,-0.003618,0.000363,  50.486
   229.0,0.000539,0.000614,-0.003579,0.000363,  50.486
   229.2,0.000524,0.000591,-0.003560,0.000326,  50.490
   229.4,0.000518,0.000578,-0.003568,0.000350,  50.500
   229.6,0.000518,0.000571,-0.003630,0.000350,  50.497
   229.8,0.000521,0.000572,-0.003610,0.000313,  50.501
   230.0,0.000524,0.000569,-0.003600,0.000350,  50.508
   230.2,0.000521,0.000565,-0.003548,0.000350,  50.512
   230.4,0.000518,0.000573,-0.003548,0.000350,  50.513
   230.6,0.000521,0.000573,-0.003583,0.000374,  50.521
   230.8,0.000510,0.000572,-0.003628,0.000374,  50.523
   231.0,0.000510,0.000573,-0.003635,0.000388,  50.531
   231.2,0.000506,0.000570,-0.003626,0.000374,  50.532
   231.4,0.000506,0.000578,-0.003591,0.000374,  50.538
   231.6,0.000509,0.000576,-0.003618,0.000388,  50.543
   231.8,0.000518,0.000577,-0.003690,0.000374,  50.542
   232.0,0.000517,0.000595,-0.003781,0.000374,  50.535
   232.2,0.000540,0.000614,-0.003702,0.000388,  50.538
   232.4,0.000556,0.000621,-0.003552,0.000374,  50.539
   232.6,0.000552,0.000626,-0.003315,0.000374,  50.542
   232.8,0.000556,0.000639,-0.004038,0.000388,  50.548
   233.0,0.000550,0.000632,-0.005255,0.000388,  50.552
   233.2,0.000541,0.000608,-0.006886,0.000388,  50.563
   233.4,0.000524,0.000585,-0.006904,0.000388,  50.555
   233.6,0.000517,0.000575,-0.006405,0.000388,  50.566
   233.8,0.000510,0.000572,-0.005304,0.000388,  50.567
   234.0,0.000500,0.000577,-0.004975,0.000388,  50.567
   234.2,0.000510,0.000571,-0.004779,0.000388,  50.577
   234.4,0.000513,0.000571,-0.004682,0.000388,  50.573
   234.6,0.000503,0.000574,-0.004538,0.000363,  50.582
   234.8,0.000510,0.000572,-0.004414,0.000401,  50.579
   235.0,0.000506,0.000572,-0.004325,0.000388,  50.580
   235.2,0.000503,0.000580,-0.004218,0.000350,  50.581
   235.4,0.000503,0.000577,-0.004137,0.000388,  50.580
   235.6,0.000499,0.000582,-0.004065,0.000388,  50.583
   235.8,0.000506,0.000587,-0.004003,0.000388,  50.582
   236.0,0.000506,0.000593,-0.003904,0.000388,  50.582
   236.2,0.000511,0.000610,-0.003789,0.000388,  50.582
   236.4,0.000531,0.000618,-0.003682,0.000388,  50.581
   236.6,0.000543,0.000623,-0.003836,0.000388,  50.583
   236.8,0.000538,0.000634,-0.004123,0.000388,  50.580
   237.0,0.000543,0.000638,-0.004529,0.000388,  50.581
   237.2,0.000528,0.000631,-0.004467,0.000388,  50.581
   237.4,0.000514,0.000611,-0.004269,0.000388,  50.579
   237.6,0.000512,0.000594,-0.003918,0.000388,  50.583
   237.8,0.000503,0.000587,-0.003774,0.000388,  50.584
   238.0,0.000496,0.000582,-0.003692,0.000388,  50.582
   238.2,0.000500,0.000582,-0.003672,0.000388,  50.580
   238.4,0.000500,0.000587,-0.003672,0.000401,  50.582
   238.6,0.000496,0.000587,-0.003709,0.000401,  50.586
   238.8,0.000503,0.000592,-0.003818,0.000401,  50.583
   239.0,0.000503,0.000592,-0.003791,0.000414,  50.583
   239.2,0.000499,0.000589,-0.003754,0.000401,  50.586
   239.4,0.000506,0.000584,-0.003682,0.000438,  50.599
   239.6,0.000506,0.000584,-0.003628,0.000438,  50.599
   239.8,0.000502,0.000581,-0.003591,0.000425,  50.600
   240.0,0.000509,0.000581,-0.003528,0.000425,  50.596
   240.2,0.000506,0.000588,-0.003735,0.000438,  50.594
   240.4,0.000511,0.000598,-0.004084,0.000401,  50.598
   240.6,0.000531,0.000613,-0.004558,0.000363,  50.591
   240.8,0.000543,0.000635,-0.004488,0.000363,  50.590
   241.0,0.000535,0.000640,-0.004205,0.000388,  50.594
   241.2,0.000537,0.000642,-0.003725,0.000388,  50.589
   241.4,0.000518,0.000638,-0.003618,0.000388,  50.596
   241.6,0.000512,0.000631,-0.003644,0.000388,  50.597
   241.8,0.000499,0.000613,-0.003751,0.000388,  50.599
   242.0,0.000493,0.000597,-0.003723,0.000388,  50.599
   242.2,0.000494,0.000592,-0.003704,0.000388,  50.601
   242.4,0.000486,0.000582,-0.003684,0.000388,  50.601
   242.6,0.000494,0.000585,-0.003711,0.000388,  50.597
   242.8,0.000494,0.000582,-0.003774,0.000388,  50.599
   243.0,0.000490,0.000579,-0.003873,0.000388,  50.602
   243.2,0.000497,0.000578,-0.003915,0.000388,  50.605
   243.4,0.000497,0.000573,-0.003915,0.000388,  50.604
   243.6,0.000493,0.000573,-0.003898,0.000388,  50.607
   243.8,0.000500,0.000570,-0.004077,0.000388,  50.608
   244.0,0.000500,0.000565,-0.004380,0.000388,  50.610
   244.2,0.000496,0.000576,-0.004798,0.000401,  50.606
   244.4,0.000506,0.000582,-0.004727,0.000363,  50.604
   244.6,0.000509,0.000586,-0.004476,0.000414,  50.604
   244.8,0.000511,0.000608,-0.004067,0.000401,  50.605
   245.0,0.000531,0.000627,-0.003987,0.000377,  50.605
   245.2,0.000546,0.000626,-0.003972,0.000401,  50.603
   245.4,0.000538,0.000631,-0.004056,0.000401,  50.609
   245.6,0.000540,0.000624,-0.004172,0.000401,  50.610
   245.8,0.000521,0.000614,-0.004351,0.000401,  50.614
   246.0,0.000515,0.000610,-0.004582,0.000388,  50.616
   246.2,0.000509,0.000592,-0.004891,0.000388,  50.617
   246.4,0.000507,0.000585,-0.004847,0.000388,  50.618
   246.6,0.000507,0.000586,-0.004731,0.000388,  50.619
   246.8,0.000497,0.000587,-0.004508,0.000388,  50.622
   247.0,0.000504,0.000580,-0.004399,0.000388,  50.626
   247.2,0.000507,0.000577,-0.004285,0.000388,  50.626
   247.4,0.000500,0.000579,-0.004195,0.000388,  50.631
   247.6,0.000507,0.000581,-0.004158,0.000401,  50.631
   247.8,0.000510,0.000576,-0.004158,0.000401,  50.630
   248.0,0.000506,0.000578,-0.004176,0.000401,  50.633
   248.2,0.000513,0.000584,-0.004094,0.000377,  50.634
   248.4,0.000520,0.000581,-0.003995,0.000363,  50.632
   248.6,0.000515,0.000584,-0.003851,0.000377,  50.628
   248.8,0.000526,0.000585,-0.003742,0.000339,  50.624
   249.0,0.000535,0.000591,-0.003618,0.000377,  50.625
   249.2,0.000540,0.000602,-0.003486,0.000390,  50.622
   249.4,0.000556,0.000626,-0.003379,0.000339,  50.629
   249.6,0.000553,0.000623,-0.003281,0.000377,  50.626
   249.8,0.000537,0.000613,-0.003177,0.000377,  50.630
   250.0,0.000526,0.000603,-0.003239,0.000339,  50.632
   250.2,0.000520,0.000592,-0.003381,0.000363,  50.630
   250.4,0.000506,0.000581,-0.003612,0.000363,  50.634
   250.6,0.000507,0.000576,-0.003655,0.000326,  50.635
   250.8,0.000500,0.000568,-0.003635,0.000350,  50.633
   251.0,0.000500,0.000568,-0.003528,0.000350,  50.633
   251.2,0.000500,0.000570,-0.003519,0.000326,  50.634
   251.4,0.000500,0.000567,-0.003528,0.000363,  50.634
   251.6,0.000493,0.000567,-0.003581,0.000363,  50.636
   251.8,0.000493,0.000567,-0.003643,0.000339,  50.635
   252.0,0.000500,0.000564,-0.003742,0.000363,  50.635
   252.2,0.000493,0.000564,-0.003886,0.000363,  50.635
   252.4,0.000503,0.000569,-0.004420,0.000339,  50.635
   252.6,0.000513,0.000571,-0.005133,0.000363,  50.635
   252.8,0.000523,0.000570,-0.006057,0.000377,  50.632
   253.0,0.000518,0.000572,-0.006057,0.000339,  50.632
   253.2,0.000532,0.000584,-0.005686,0.000377,  50.631
   253.4,0.000544,0.000599,-0.004942,0.000390,  50.629
   253.6,0.000549,0.000621,-0.004595,0.000353,  50.629
   253.8,0.000569,0.000618,-0.004248,0.000390,  50.623
   254.0,0.000565,0.000611,-0.003952,0.000390,  50.632
   254.2,0.000546,0.000599,-0.004015,0.000377,  50.633
   254.4,0.000529,0.000590,-0.004290,0.000377,  50.635
   254.6,0.000523,0.000584,-0.004746,0.000401,  50.637
   254.8,0.000512,0.000580,-0.004763,0.000377,  50.635
   255.0,0.000513,0.000575,-0.004672,0.000401,  50.638
   255.2,0.000513,0.000566,-0.004457,0.000401,  50.641
   255.4,0.000503,0.000568,-0.004142,0.000401,  50.642
   255.6,0.000510,0.000567,-0.004212,0.000414,  50.647
   255.8,0.000513,0.000570,-0.004338,0.000401,  50.646
   256.0,0.000503,0.000575,-0.004571,0.000401,  50.649
   256.2,0.000507,0.000570,-0.004606,0.000377,  50.654
   256.4,0.000510,0.000573,-0.004579,0.000363,  50.649
   256.6,0.000503,0.000571,-0.004500,0.000363,  50.654
   256.8,0.000507,0.000573,-0.004391,0.000339,  50.652
   257.0,0.000517,0.000575,-0.004237,0.000363,  50.648
   257.2,0.000518,0.000588,-0.004049,0.000377,  50.650
   257.4,0.000538,0.000592,-0.003915,0.000353,  50.644
   257.6,0.000550,0.000602,-0.003791,0.000390,  50.644
   257.8,0.000552,0.000615,-0.003678,0.000403,  50.647
   258.0,0.000569,0.000641,-0.003626,0.000366,  50.647
   258.2,0.000565,0.000637,-0.003618,0.000403,  50.650
   258.4,0.000546,0.000627,-0.003630,0.000417,  50.645
   258.6,0.000529,0.000616,-0.003657,0.000353,  50.651
   258.8,0.000515,0.000613,-0.003727,0.000377,  50.651
   259.0,0.000512,0.000598,-0.003841,0.000377,  50.650
   259.2,0.000509,0.000587,-0.003814,0.000339,  50.653
   259.4,0.000499,0.000582,-0.003767,0.000363,  50.652
   259.6,0.000506,0.000584,-0.003693,0.000363,  50.655
   259.8,0.000509,0.000582,-0.003763,0.000339,  50.654
   260.0,0.000502,0.000577,-0.003890,0.000363,  50.652
   260.2,0.000509,0.000581,-0.004045,0.000363,  50.653
   260.4,0.000509,0.000581,-0.004053,0.000339,  50.656
   260.6,0.000509,0.000578,-0.004024,0.000363,  50.651
   260.8,0.000505,0.000581,-0.003925,0.000363,  50.651
   261.0,0.000505,0.000581,-0.003853,0.000339,  50.649
   261.2,0.000512,0.000582,-0.003781,0.000363,  50.649
   261.4,0.000514,0.000597,-0.003719,0.000377,  50.647
   261.6,0.000531,0.000606,-0.003631,0.000339,  50.642
   261.8,0.000546,0.000618,-0.003561,0.000377,  50.644
   262.0,0.000545,0.000631,-0.003491,0.000390,  50.638
   262.2,0.000558,0.000649,-0.003484,0.000353,  50.638
   262.4,0.000564,0.000644,-0.003521,0.000403,  50.639
   262.6,0.000551,0.000627,-0.003602,0.000417,  50.639
   262.8,0.000543,0.000611,-0.003727,0.000366,  50.635
   263.0,0.000524,0.000599,-0.003861,0.000390,  50.630
   263.2,0.000518,0.000590,-0.004022,0.000390,  50.632
   263.4,0.000513,0.000588,-0.004102,0.000390,  50.633
   263.6,0.000519,0.000581,-0.004154,0.000339,  50.632
   263.8,0.000519,0.000584,-0.004154,0.000377,  50.631
   264.0,0.000515,0.000587,-0.004135,0.000353,  50.628
   264.2,0.000521,0.000587,-0.004045,0.000353,  50.632
   264.4,0.000524,0.000587,-0.003971,0.000377,  50.626
   264.6,0.000517,0.000585,-0.003828,0.000390,  50.625
   264.8,0.000513,0.000584,-0.003835,0.000339,  50.626
   265.0,0.000509,0.000588,-0.003872,0.000377,  50.631
   265.2,0.000509,0.000587,-0.003962,0.000390,  50.630
   265.4,0.000509,0.000593,-0.003944,0.000339,  50.629
   265.6,0.000514,0.000607,-0.003952,0.000377,  50.631
   265.8,0.000529,0.000616,-0.003909,0.000390,  50.629
   266.0,0.000548,0.000622,-0.003795,0.000353,  50.631
   266.2,0.000553,0.000629,-0.003643,0.000390,  50.625
   266.4,0.000559,0.000636,-0.003466,0.000403,  50.623
   266.6,0.000563,0.000646,-0.003421,0.000366,  50.623
   266.8,0.000549,0.000636,-0.003404,0.000403,  50.623
   267.0,0.000537,0.000625,-0.003449,0.000417,  50.626
   267.2,0.000523,0.000606,-0.003519,0.000353,  50.628
   267.4,0.000510,0.000591,-0.003616,0.000377,  50.629
   267.6,0.000504,0.000584,-0.003750,0.000377,  50.631
   267.8,0.000511,0.000580,-0.003802,0.000377,  50.629
   268.0,0.000508,0.000572,-0.003820,0.000401,  50.635
   268.2,0.000512,0.000570,-0.003830,0.000401,  50.635
   268.4,0.000521,0.000577,-0.003837,0.000401,  50.637
   268.6,0.000521,0.000574,-0.003820,0.000388,  50.639
   268.8,0.000513,0.000572,-0.003810,0.000388,  50.639
   269.0,0.000517,0.000577,-0.003810,0.000388,  50.643
   269.2,0.000520,0.000574,-0.003828,0.000388,  50.642
   269.4,0.000512,0.000574,-0.003872,0.000388,  50.644
   269.6,0.000520,0.000580,-0.003890,0.000401,  50.649
   269.8,0.000526,0.000584,-0.003900,0.000401,  50.649
   270.0,0.000531,0.000599,-0.003919,0.000414,  50.647
   270.2,0.000550,0.000619,-0.003884,0.000414,  50.650
   270.4,0.000565,0.000621,-0.003832,0.000414,  50.643
   270.6,0.000564,0.000628,-0.003744,0.000428,  50.650
   270.8,0.000575,0.000633,-0.003837,0.000390,  50.642
   271.0,0.000572,0.000625,-0.004033,0.000403,  50.645
   271.2,0.000565,0.000613,-0.004324,0.000417,  50.649
   271.4,0.000546,0.000601,-0.004322,0.000353,  50.650
   271.6,0.000538,0.000591,-0.004217,0.000377,  50.649
   271.8,0.000535,0.000589,-0.004009,0.000377,  50.649
   272.0,0.000521,0.000585,-0.003967,0.000339,  50.656
   272.2,0.000523,0.000581,-0.003951,0.000363,  50.658
   272.4,0.000526,0.000582,-0.003963,0.000350,  50.656
   272.6,0.000521,0.000589,-0.003992,0.000363,  50.654
   272.8,0.000532,0.000589,-0.004022,0.000350,  50.661
   273.0,0.000532,0.000583,-0.004086,0.000388,  50.659
   273.2,0.000521,0.000588,-0.004105,0.000350,  50.662
   273.4,0.000526,0.000588,-0.004115,0.000388,  50.661
   273.6,0.000526,0.000594,-0.004115,0.000388,  50.665
   273.8,0.000518,0.000597,-0.004133,0.000388,  50.665
   274.0,0.000526,0.000608,-0.004080,0.000388,  50.666
   274.2,0.000535,0.000616,-0.003991,0.000388,  50.666
   274.4,0.000550,0.000628,-0.003884,0.000401,  50.664
   274.6,0.000579,0.000632,-0.003804,0.000377,  50.662
   274.8,0.000585,0.000635,-0.003742,0.000390,  50.667
   275.0,0.000588,0.000630,-0.003682,0.000403,  50.662
   275.2,0.000585,0.000628,-0.003630,0.000366,  50.661
   275.4,0.000579,0.000615,-0.003610,0.000403,  50.664
   275.6,0.000570,0.000611,-0.003593,0.000417,  50.667
   275.8,0.000551,0.000605,-0.004288,0.000353,  50.669
   276.0,0.000545,0.000599,-0.005356,0.000377,  50.675
   276.2,0.000532,0.000592,-0.006792,0.000390,  50.673
   276.4,0.000532,0.000594,-0.007021,0.000339,  50.680
   276.6,0.000532,0.000588,-0.006852,0.000377,  50.679
   276.8,0.000524,0.000586,-0.006258,0.000390,  50.686
   277.0,0.000529,0.000587,-0.005937,0.000339,  50.690
   277.2,0.000526,0.000579,-0.005530,0.000377,  50.699
   277.4,0.000515,0.000582,-0.005085,0.000377,  50.706
   277.6,0.000517,0.000583,-0.004817,0.000339,  50.701
   277.8,0.000517,0.000577,-0.004639,0.000363,  50.705
   278.0,0.000509,0.000577,-0.004540,0.000377,  50.705
   278.2,0.000520,0.000582,-0.004389,0.000339,  50.704
   278.4,0.000532,0.000586,-0.004274,0.000377,  50.706
   278.6,0.000540,0.000606,-0.004177,0.000390,  50.699
   278.8,0.000565,0.000633,-0.004078,0.000353,  50.699
   279.0,0.000572,0.000635,-0.003964,0.000403,  50.702
   279.2,0.000570,0.000632,-0.003867,0.000417,  50.703
   279.4,0.000578,0.000628,-0.003795,0.000379,  50.698
   279.6,0.000572,0.000621,-0.003730,0.000417,  50.701
   279.8,0.000558,0.000611,-0.003676,0.000430,  50.704
   280.0,0.000556,0.000599,-0.003693,0.000366,  50.706
   280.2,0.000538,0.000592,-0.003748,0.000377,  50.704
   280.4,0.000535,0.000587,-0.003865,0.000390,  50.711
   280.6,0.000518,0.000585,-0.003872,0.000339,  50.709
   280.8,0.000520,0.000579,-0.003853,0.000377,  50.714
   281.0,0.000520,0.000579,-0.003816,0.000390,  50.716
   281.2,0.000515,0.000579,-0.003851,0.000339,  50.714
   281.4,0.000523,0.000577,-0.003895,0.000377,  50.718
   281.6,0.000520,0.000574,-0.003960,0.000377,  50.720
   281.8,0.000512,0.000575,-0.003932,0.000377,  50.722
   282.0,0.000517,0.000570,-0.003913,0.000339,  50.726
   282.2,0.000517,0.000572,-0.003876,0.000363,  50.729
   282.4,0.000515,0.000574,-0.003849,0.000339,  50.728
   282.6,0.000529,0.000588,-0.003796,0.000339,  50.724
   282.8,0.000541,0.000605,-0.003761,0.000377,  50.721
   283.0,0.000546,0.000626,-0.003719,0.000390,  50.728
   283.2,0.000565,0.000631,-0.003728,0.000353,  50.731
   283.4,0.000572,0.000628,-0.003773,0.000390,  50.730
   283.6,0.000564,0.000625,-0.003810,0.000403,  50.730
   283.8,0.000572,0.000610,-0.003783,0.000366,  50.734
   284.0,0.000565,0.000601,-0.003748,0.000390,  50.736
   284.2,0.000546,0.000595,-0.003703,0.000390,  50.735
   284.4,0.000535,0.000591,-0.003666,0.000353,  50.734
   284.6,0.000524,0.000581,-0.003639,0.000363,  50.744
   284.8,0.000518,0.000584,-0.003654,0.000363,  50.739
   285.0,0.000512,0.000582,-0.004171,0.000339,  50.740
   285.2,0.000505,0.000581,-0.004937,0.000363,  50.740
   285.4,0.000515,0.000578,-0.005995,0.000363,  50.736
   285.6,0.000518,0.000570,-0.006047,0.000339,  50.739
   285.8,0.000508,0.000572,-0.005736,0.000363,  50.740
   286.0,0.000512,0.000570,-0.005061,0.000363,  50.738
   286.2,0.000509,0.000567,-0.004848,0.000326,  50.736
   286.4,0.000505,0.000570,-0.004749,0.000350,  50.740
   286.6,0.000518,0.000573,-0.004697,0.000363,  50.741
   286.8,0.000531,0.000578,-0.004493,0.000326,  50.740
   287.0,0.000535,0.000587,-0.004280,0.000377,  50.735
   287.2,0.000552,0.000603,-0.004057,0.000390,  50.737
   287.4,0.000564,0.000627,-0.004092,0.000339,  50.734
   287.6,0.000560,0.000626,-0.004235,0.000377,  50.736
   287.8,0.000567,0.000624,-0.004513,0.000390,  50.733
   288.0,0.000564,0.000614,-0.004478,0.000353,  50.731
   288.2,0.000561,0.000607,-0.004362,0.000390,  50.733
   288.4,0.000548,0.000601,-0.004156,0.000403,  50.733
   288.6,0.000542,0.000592,-0.004039,0.000353,  50.734
   288.8,0.000537,0.000585,-0.003940,0.000377,  50.736
   289.0,0.000526,0.000585,-0.003866,0.000377,  50.734
   289.2,0.000528,0.000585,-0.003884,0.000339,  50.740
   289.4,0.000524,0.000579,-0.003983,0.000363,  50.738
   289.6,0.000528,0.000579,-0.004111,0.000363,  50.744
   289.8,0.000524,0.000579,-0.004121,0.000339,  50.742
   290.0,0.000532,0.000577,-0.004156,0.000363,  50.743
   290.2,0.000532,0.000580,-0.004146,0.000363,  50.747
   290.4,0.000521,0.000586,-0.004084,0.000339,  50.749
   290.6,0.000523,0.000583,-0.004002,0.000363,  50.753
   290.8,0.000521,0.000588,-0.003911,0.000363,  50.748
   291.0,0.000534,0.000595,-0.003841,0.000377,  50.748
   291.2,0.000546,0.000599,-0.003781,0.000326,  50.745
   291.4,0.000552,0.000621,-0.003756,0.000377,  50.747
   291.6,0.000562,0.000641,-0.003728,0.000353,  50.745
   291.8,0.000570,0.000640,-0.003711,0.000353,  50.748
   292.0,0.000573,0.000639,-0.003711,0.000377,  50.748
   292.2,0.000576,0.000634,-0.003711,0.000390,  50.751
   292.4,0.000579,0.000624,-0.003719,0.000339,  50.750
   292.6,0.000573,0.000614,-0.003719,0.000377,  50.749
   292.8,0.000553,0.000598,-0.003728,0.000390,  50.743
   293.0,0.000538,0.000588,-0.003709,0.000339,  50.752
   293.2,0.000535,0.000587,-0.003689,0.000377,  50.751
   293.4,0.000521,0.000585,-0.003679,0.000377,  50.749
   293.6,0.000526,0.000586,-0.003695,0.000339,  50.747
   293.8,0.000529,0.000578,-0.003695,0.000363,  50.749
   294.0,0.000521,0.000587,-0.003722,0.000363,  50.750
   294.2,0.000532,0.000582,-0.004534,0.000339,  50.751
   294.4,0.000532,0.000585,-0.005744,0.000363,  50.752
   294.6,0.000521,0.000581,-0.007338,0.000363,  50.759
   294.8,0.000523,0.000583,-0.007383,0.000339,  50.755
   295.0,0.000529,0.000584,-0.006861,0.000363,  50.761
   295.2,0.000537,0.000590,-0.005754,0.000363,  50.760
   295.4,0.000556,0.000600,-0.005336,0.000377,  50.754
   295.6,0.000559,0.000609,-0.004992,0.000401,  50.755
   295.8,0.000555,0.000623,-0.004701,0.000438,  50.758
   296.0,0.000556,0.000642,-0.004505,0.000438,  50.757
   296.2,0.000559,0.000639,-0.004416,0.000412,  50.758
   296.4,0.000558,0.000638,-0.004398,0.000412,  50.755
   296.6,0.000569,0.000631,-0.004327,0.000438,  50.755
   296.8,0.000565,0.000621,-0.004290,0.000401,  50.755
   297.0,0.000549,0.000612,-0.004237,0.000363,  50.755
   297.2,0.000541,0.000599,-0.004183,0.000339,  50.754
   297.4,0.000535,0.000589,-0.004146,0.000363,  50.758
   297.6,0.000528,0.000593,-0.004084,0.000363,  50.756
   297.8,0.000529,0.000591,-0.004039,0.000339,  50.763
   298.0,0.000526,0.000588,-0.004037,0.000363,  50.760
   298.2,0.000518,0.000585,-0.004012,0.000363,  50.760
   298.4,0.000526,0.000585,-0.003995,0.000339,  50.757
   298.6,0.000529,0.000581,-0.004029,0.000363,  50.759
   298.8,0.000529,0.000584,-0.004066,0.000363,  50.763
   299.0,0.000518,0.000587,-0.004022,0.000326,  50.767
   299.2,0.000520,0.000588,-0.003940,0.000350,  50.770
   299.4,0.000518,0.000598,-0.003841,0.000363,  50.763
   299.6,0.000534,0.000615,-0.003788,0.000326,  50.758
   299.8,0.000549,0.000614,-0.003763,0.000377,  50.758
   300.0,0.000542,0.000614,-0.003748,0.000377,  50.758
   300.2,0.000546,0.000617,-0.003693,0.000390,  50.760
   300.4,0.000534,0.000617,-0.003656,0.000363,  50.762
   300.6,0.000532,0.000629,-0.003602,0.000374,  50.765
   300.8,0.000549,0.000639,-0.003567,0.000337,  50.764
   301.0,0.000561,0.000639,-0.003532,0.000337,  50.762
   301.2,0.000554,0.000641,-0.003526,0.000337,  50.761
   301.4,0.000552,0.000636,-0.003503,0.000337,  50.760
   301.6,0.000537,0.000631,-0.003406,0.000313,  50.759
   301.8,0.000523,0.000619,-0.003309,0.000337,  50.757
   302.0,0.000521,0.000610,-0.003184,0.000323,  50.754
   302.2,0.000512,0.000598,-0.003122,0.000286,  50.755
   302.4,0.000499,0.000594,-0.003087,0.000310,  50.749
   302.6,0.000500,0.000590,-0.003079,0.000297,  50.745
   302.8,0.000488,0.000583,-0.003044,0.000259,  50.746
   303.0,0.000474,0.000575,-0.003027,0.000310,  50.748
   303.2,0.000475,0.000578,-0.003009,0.000310,  50.739
   303.4,0.000469,0.000570,-0.003002,0.000272,  50.745
   303.6,0.000459,0.000563,-0.003011,0.000310,  50.744
   303.8,0.000463,0.000563,-0.003074,0.000310,  50.739
   304.0,0.000460,0.000562,-0.003056,0.000272,  50.733
   304.2,0.000453,0.000554,-0.003021,0.000310,  50.734
   304.4,0.000460,0.000557,-0.003002,0.000310,  50.733
   304.6,0.000457,0.000560,-0.002957,0.000272,  50.734
   304.8,0.000454,0.000555,-0.002902,0.000310,  50.726
   305.0,0.000448,0.000555,-0.002857,0.000310,  50.729
   305.2,0.000449,0.000552,-0.002999,0.000272,  50.726
   305.4,0.000446,0.000544,-0.003223,0.000310,  50.721
   305.6,0.000436,0.000551,-0.003521,0.000310,  50.718
   305.8,0.000443,0.000551,-0.003584,0.000272,  50.719
   306.0,0.000443,0.000546,-0.003549,0.000297,  50.718
   306.2,0.000436,0.000544,-0.003434,0.000310,  50.720
   306.4,0.000443,0.000546,-0.003389,0.000259,  50.721
   306.6,0.000437,0.000538,-0.003344,0.000283,  50.725
   306.8,0.000420,0.000531,-0.003282,0.000283,  50.727
   307.0,0.000419,0.000529,-0.003247,0.000219,  50.724
   307.2,0.000403,0.000505,-0.003204,0.000216,  50.724
   307.4,0.000371,0.000479,-0.003189,0.000190,  50.718
   307.6,0.000345,0.000450,-0.003127,0.000139,  50.713
   307.8,0.000305,0.000430,-0.003057,0.000123,  50.703
   308.0,0.000293,0.000418,-0.002997,0.000123,  50.697
   308.2,0.000277,0.000414,-0.002997,0.000085,  50.696
   308.4,0.000284,0.000409,-0.003041,0.000136,  50.689
   308.6,0.000290,0.000411,-0.003131,0.000150,  50.689
   308.8,0.000292,0.000426,-0.003121,0.000150,  50.687
   309.0,0.000315,0.000425,-0.003111,0.000200,  50.687
   309.2,0.000324,0.000430,-0.003092,0.000214,  50.689
   309.4,0.000319,0.000440,-0.003065,0.000200,  50.687
   309.6,0.000327,0.000437,-0.003030,0.000200,  50.683
   309.8,0.000327,0.000427,-0.002995,0.000200,  50.677
   310.0,0.000316,0.000419,-0.002957,0.000163,  50.662
   310.2,0.000318,0.000418,-0.002938,0.000214,  50.661
   310.4,0.000321,0.000423,-0.002875,0.000200,  50.661
   310.6,0.000316,0.000430,-0.002875,0.000176,  50.657
   310.8,0.000333,0.000435,-0.002893,0.000227,  50.654
   311.0,0.000342,0.000437,-0.002938,0.000227,  50.655
   311.2,0.000344,0.000448,-0.003010,0.000241,  50.656
   311.4,0.000357,0.000455,-0.003277,0.000254,  50.650
   311.6,0.000367,0.000460,-0.003600,0.000254,  50.651
   311.8,0.000371,0.000467,-0.004044,0.000267,  50.651
   312.0,0.000388,0.000468,-0.004089,0.000294,  50.647
   312.2,0.000394,0.000476,-0.003982,0.000281,  50.647
   312.4,0.000400,0.000486,-0.003769,0.000294,  50.649
   312.6,0.000411,0.000490,-0.004072,0.000256,  50.649
   312.8,0.000417,0.000495,-0.004553,0.000256,  50.647
   313.0,0.000420,0.000495,-0.005248,0.000270,  50.654
   313.2,0.000420,0.000501,-0.005184,0.000219,  50.655
   313.4,0.000423,0.000500,-0.004810,0.000256,  50.647
   313.6,0.000419,0.000503,-0.004176,0.000270,  50.646
   313.8,0.000412,0.000501,-0.003961,0.000219,  50.648
   314.0,0.000409,0.000497,-0.003809,0.000256,  50.646
   314.2,0.000402,0.000503,-0.003730,0.000270,  50.652
   314.4,0.000406,0.000501,-0.003621,0.000219,  50.647
   314.6,0.000403,0.000500,-0.003531,0.000256,  50.652
   314.8,0.000393,0.000502,-0.003451,0.000256,  50.654
   315.0,0.000400,0.000502,-0.003862,0.000219,  50.665
   315.2,0.000391,0.000490,-0.004531,0.000243,  50.667
   315.4,0.000362,0.000486,-0.005449,0.000230,  50.672
   315.6,0.000342,0.000475,-0.005360,0.000165,  50.676
   315.8,0.000324,0.000449,-0.004917,0.000163,  50.671
   316.0,0.000292,0.000425,-0.004116,0.000150,  50.659
   316.2,0.000281,0.000395,-0.003885,0.000085,  50.656
   316.4,0.000256,0.000377,-0.003780,0.000096,  50.652
   316.6,0.000243,0.000381,-0.003792,0.000109,  50.650
   316.8,0.000250,0.000384,-0.003648,0.000085,  50.645
   317.0,0.000256,0.000384,-0.003512,0.000136,  50.645
   317.2,0.000266,0.000396,-0.003349,0.000150,  50.644
   317.4,0.000270,0.000406,-0.003284,0.000125,  50.652
   317.6,0.000293,0.000410,-0.003274,0.000176,  50.652
   317.8,0.000302,0.000417,-0.003312,0.000190,  50.658
   318.0,0.000298,0.000420,-0.003239,0.000139,  50.659
   318.2,0.000305,0.000414,-0.003150,0.000150,  50.654
   318.4,0.000305,0.000415,-0.003025,0.000136,  50.652
   318.6,0.000295,0.000408,-0.002971,0.000150,  50.647
   318.8,0.000293,0.000405,-0.002953,0.000099,  50.646
   319.0,0.000296,0.000407,-0.002971,0.000150,  50.642
   319.2,0.000292,0.000414,-0.003006,0.000112,  50.643
   319.4,0.000305,0.000418,-0.003043,0.000125,  50.641
   319.6,0.000315,0.000425,-0.003150,0.000176,  50.643
   319.8,0.000319,0.000438,-0.003195,0.000203,  50.643
   320.0,0.000336,0.000444,-0.003220,0.000165,  50.647
   320.2,0.000348,0.000456,-0.003222,0.000203,  50.642
   320.4,0.000350,0.000465,-0.003247,0.000216,  50.650
   320.6,0.000367,0.000469,-0.003193,0.000206,  50.649
   320.8,0.000376,0.000482,-0.003146,0.000243,  50.645
   321.0,0.000374,0.000484,-0.003081,0.000243,  50.653
   321.2,0.000385,0.000483,-0.003241,0.000219,  50.649
   321.4,0.000391,0.000493,-0.003527,0.000243,  50.654
   321.6,0.000390,0.000498,-0.003904,0.000243,  50.655
   321.8,0.000400,0.000498,-0.003912,0.000219,  50.656
   322.0,0.000403,0.000501,-0.003788,0.000243,  50.655
   322.2,0.000393,0.000496,-0.003521,0.000243,  50.654
   322.4,0.000397,0.000491,-0.003395,0.000219,  50.653
   322.6,0.000400,0.000486,-0.003278,0.000243,  50.652
   322.8,0.000393,0.000486,-0.003161,0.000256,  50.656
   323.0,0.000400,0.000488,-0.003258,0.000219,  50.664
   323.2,0.000400,0.000482,-0.003447,0.000256,  50.667
   323.4,0.000390,0.000484,-0.003760,0.000256,  50.671
   323.6,0.000391,0.000489,-0.003770,0.000243,  50.677
   323.8,0.000376,0.000479,-0.003673,0.000254,  50.678
   324.0,0.000344,0.000463,-0.003488,0.000227,  50.684
   324.2,0.000315,0.000448,-0.003535,0.000214,  50.680
   324.4,0.000283,0.000427,-0.003662,0.000160,  50.678
   324.6,0.000258,0.000401,-0.003878,0.000147,  50.672
   324.8,0.000234,0.000373,-0.003825,0.000109,  50.663
   325.0,0.000220,0.000360,-0.003709,0.000096,  50.662
   325.2,0.000231,0.000360,-0.003502,0.000109,  50.664
   325.4,0.000243,0.000367,-0.003384,0.000085,  50.658
   325.6,0.000249,0.000372,-0.003247,0.000136,  50.662
   325.8,0.000251,0.000379,-0.003121,0.000150,  50.663
   326.0,0.000260,0.000394,-0.003046,0.000125,  50.666
   326.2,0.000280,0.000396,-0.002999,0.000176,  50.664
   326.4,0.000275,0.000403,-0.002964,0.000190,  50.668
   326.6,0.000286,0.000415,-0.002964,0.000139,  50.667
   326.8,0.000293,0.000410,-0.003019,0.000163,  50.662
   327.0,0.000293,0.000405,-0.003076,0.000176,  50.655
   327.2,0.000280,0.000398,-0.003130,0.000125,  50.661
   327.4,0.000278,0.000393,-0.003202,0.000150,  50.648
   327.6,0.000281,0.000395,-0.003292,0.000163,  50.651
   327.8,0.000277,0.000398,-0.003300,0.000125,  50.653
   328.0,0.000287,0.000398,-0.003282,0.000163,  50.649
   328.2,0.000293,0.000402,-0.003237,0.000176,  50.647
   328.4,0.000299,0.000413,-0.003218,0.000176,  50.643
   328.6,0.000317,0.000412,-0.003190,0.000165,  50.645
   328.8,0.000326,0.000425,-0.003181,0.000203,  50.643
   329.0,0.000331,0.000434,-0.003188,0.000179,  50.641
   329.2,0.000340,0.000439,-0.003161,0.000179,  50.640
   329.4,0.000346,0.000450,-0.003186,0.000216,  50.639
   329.6,0.000353,0.000456,-0.003186,0.000216,  50.637
   329.8,0.000359,0.000463,-0.003229,0.000192,  50.640
   330.0,0.000362,0.000462,-0.003274,0.000216,  50.641
   330.2,0.000368,0.000467,-0.003328,0.000216,  50.641
   330.4,0.000371,0.000469,-0.003363,0.000192,  50.642
   330.6,0.000381,0.000461,-0.003391,0.000216,  50.642
   330.8,0.000389,0.000467,-0.003428,0.000216,  50.637
   331.0,0.000390,0.000467,-0.003400,0.000192,  50.639
   331.2,0.000393,0.000468,-0.003346,0.000230,  50.638
   331.4,0.000386,0.000470,-0.003291,0.000230,  50.641
   331.6,0.000381,0.000468,-0.003987,0.000192,  50.643
   331.8,0.000371,0.000463,-0.005056,0.000230,  50.647
   332.0,0.000354,0.000460,-0.006468,0.000216,  50.652
   332.2,0.000353,0.000456,-0.006530,0.000165,  50.655
   332.4,0.000331,0.000440,-0.006106,0.000190,  50.656
   332.6,0.000297,0.000421,-0.005176,0.000163,  50.654
   332.8,0.000258,0.000398,-0.004768,0.000085,  50.648
   333.0,0.000236,0.000379,-0.004386,0.000083,  50.640
   333.2,0.000221,0.000360,-0.004038,0.000083,  50.639
   333.4,0.000206,0.000341,-0.003780,0.000045,  50.637
   333.6,0.000209,0.000336,-0.003618,0.000083,  50.628
   333.8,0.000218,0.000337,-0.003502,0.000083,  50.635
   334.0,0.000236,0.000346,-0.003616,0.000072,  50.633
   334.2,0.000252,0.000352,-0.003885,0.000123,  50.634
   334.4,0.000267,0.000366,-0.004287,0.000136,  50.635
   334.6,0.000282,0.000381,-0.004250,0.000125,  50.641
   334.8,0.000291,0.000385,-0.004079,0.000176,  50.644
   335.0,0.000297,0.000402,-0.003749,0.000190,  50.648
   335.2,0.000290,0.000406,-0.003758,0.000139,  50.652
   335.4,0.000294,0.000401,-0.003910,0.000150,  50.645
   335.6,0.000294,0.000404,-0.004153,0.000163,  50.646
   335.8,0.000288,0.000397,-0.004091,0.000125,  50.647
   336.0,0.000282,0.000392,-0.003974,0.000150,  50.643
   336.2,0.000285,0.000394,-0.003743,0.000163,  50.640
   336.4,0.000291,0.000399,-0.003671,0.000125,  50.639
   336.6,0.000297,0.000400,-0.003636,0.000163,  50.640
   336.8,0.000307,0.000407,-0.003653,0.000176,  50.647
   337.0,0.000316,0.000417,-0.003572,0.000139,  50.644
   337.2,0.000328,0.000414,-0.003480,0.000190,  50.644
   337.4,0.000340,0.000425,-0.003379,0.000203,  50.650
   337.6,0.000346,0.000428,-0.003369,0.000203,  50.648
   337.8,0.000349,0.000429,-0.003449,0.000192,  50.655
   338.0,0.000359,0.000439,-0.003540,0.000216,  50.654
   338.2,0.000368,0.000443,-0.003602,0.000206,  50.657
   338.4,0.000371,0.000452,-0.003674,0.000206,  50.655
   338.6,0.000377,0.000459,-0.003739,0.000243,  50.661
   338.8,0.000383,0.000464,-0.003756,0.000243,  50.665
   339.0,0.000383,0.000463,-0.003749,0.000219,  50.664
   339.2,0.000386,0.000465,-0.003721,0.000243,  50.662
   339.4,0.000386,0.000463,-0.003669,0.000243,  50.665
   339.6,0.000383,0.000463,-0.003634,0.000219,  50.667
   339.8,0.000389,0.000466,-0.003642,0.000243,  50.673
   340.0,0.000382,0.000470,-0.003614,0.000243,  50.673
   340.2,0.000382,0.000465,-0.003577,0.000219,  50.673
   340.4,0.000376,0.000465,-0.003533,0.000243,  50.679
   340.6,0.000356,0.000458,-0.003478,0.000230,  50.680
   340.8,0.000345,0.000456,-0.003871,0.000179,  50.683
   341.0,0.000318,0.000434,-0.004471,0.000176,  50.686
   341.2,0.000273,0.000408,-0.005310,0.000150,  50.683
   341.4,0.000238,0.000380,-0.005292,0.000072,  50.675
   341.6,0.000223,0.000360,-0.004930,0.000069,  50.673
   341.8,0.000206,0.000352,-0.004308,0.000069,  50.670
   342.0,0.000214,0.000351,-0.004075,0.000069,  50.669
   342.2,0.000220,0.000345,-0.003904,0.000120,  50.668
   342.4,0.000229,0.000350,-0.003770,0.000147,  50.670
   342.6,0.000259,0.000367,-0.003626,0.000174,  50.668
   342.8,0.000274,0.000373,-0.003517,0.000187,  50.672
   343.0,0.000285,0.000388,-0.003410,0.000200,  50.674
   343.2,0.000311,0.000402,-0.003338,0.000214,  50.676
   343.4,0.000317,0.000406,-0.003301,0.000227,  50.676
   343.6,0.000313,0.000415,-0.003291,0.000227,  50.680
   343.8,0.000310,0.000420,-0.003274,0.000214,  50.676
   344.0,0.000310,0.000414,-0.003266,0.000200,  50.676
   344.2,0.000307,0.000410,-0.003278,0.000214,  50.674
   344.4,0.000293,0.000403,-0.003260,0.000200,  50.672
   344.6,0.000288,0.000403,-0.003251,0.000187,  50.668
   344.8,0.000291,0.000398,-0.003225,0.000200,  50.665
   345.0,0.000291,0.000398,-0.003601,0.000214,  50.663
   345.2,0.000297,0.000403,-0.004215,0.000214,  50.664
   345.4,0.000307,0.000407,-0.004990,0.000227,  50.663
   345.6,0.000316,0.000414,-0.005292,0.000227,  50.665
   345.8,0.000331,0.000421,-0.005478,0.000214,  50.658
   346.0,0.000343,0.000431,-0.005505,0.000241,  50.659
   346.2,0.000353,0.000438,-0.005460,0.000254,  50.661
   346.4,0.000362,0.000445,-0.005362,0.000254,  50.664
   346.6,0.000371,0.000450,-0.005139,0.000267,  50.658
   346.8,0.000377,0.000452,-0.004907,0.000294,  50.655
   347.0,0.000377,0.000459,-0.004630,0.000281,  50.656
   347.2,0.000383,0.000466,-0.004308,0.000281,  50.664
   347.4,0.000382,0.000473,-0.004112,0.000243,  50.660
   347.6,0.000385,0.000473,-0.004005,0.000294,  50.663
   347.8,0.000388,0.000476,-0.003927,0.000281,  50.659
   348.0,0.000384,0.000477,-0.003964,0.000256,  50.655
   348.2,0.000385,0.000472,-0.004098,0.000294,  50.662
   348.4,0.000385,0.000474,-0.004304,0.000281,  50.661
   348.6,0.000378,0.000478,-0.004616,0.000281,  50.663
   348.8,0.000382,0.000470,-0.004517,0.000281,  50.672
   349.0,0.000367,0.000457,-0.004312,0.000267,  50.675
   349.2,0.000341,0.000447,-0.003999,0.000254,  50.679
   349.4,0.000324,0.000423,-0.003867,0.000227,  50.676
   349.6,0.000296,0.000399,-0.003780,0.000187,  50.671
   349.8,0.000255,0.000364,-0.003737,0.000160,  50.670
   350.0,0.000229,0.000345,-0.003568,0.000134,  50.659
   350.2,0.000220,0.000332,-0.003407,0.000107,  50.660
   350.4,0.000212,0.000337,-0.003210,0.000107,  50.651
   350.6,0.000226,0.000340,-0.003155,0.000120,  50.649
   350.8,0.000235,0.000339,-0.003188,0.000147,  50.646
   351.0,0.000243,0.000346,-0.003260,0.000174,  50.644
   351.2,0.000266,0.000363,-0.003295,0.000150,  50.646
   351.4,0.000281,0.000370,-0.003365,0.000163,  50.646
   351.6,0.000289,0.000387,-0.003437,0.000176,  50.644
   351.8,0.000308,0.000402,-0.003472,0.000139,  50.646
   352.0,0.000315,0.000406,-0.003490,0.000190,  50.651
   352.2,0.000307,0.000418,-0.003500,0.000190,  50.652
   352.4,0.000305,0.000421,-0.003500,0.000139,  50.653
   352.6,0.000302,0.000413,-0.003482,0.000163,  50.644
   352.8,0.000289,0.000413,-0.003447,0.000176,  50.639
   353.0,0.000290,0.000402,-0.003385,0.000125,  50.636
   353.2,0.000293,0.000396,-0.003321,0.000163,  50.635
   353.4,0.000292,0.000401,-0.003221,0.000190,  50.631
   353.6,0.000308,0.000408,-0.003177,0.000152,  50.630
   353.8,0.000315,0.000410,-0.003211,0.000203,  50.630
   354.0,0.000316,0.000417,-0.003256,0.000216,  50.627
   354.2,0.000333,0.000432,-0.003426,0.000179,  50.627
   354.4,0.000339,0.000430,-0.003694,0.000203,  50.626
   354.6,0.000341,0.000437,-0.004052,0.000203,  50.627
   354.8,0.000354,0.000442,-0.004114,0.000179,  50.624
   355.0,0.000357,0.000449,-0.004079,0.000230,  50.619
   355.2,0.000363,0.000454,-0.003954,0.000230,  50.619
   355.4,0.000365,0.000464,-0.003900,0.000206,  50.613
   355.6,0.000379,0.000469,-0.003828,0.000243,  50.617
   355.8,0.000385,0.000474,-0.003731,0.000243,  50.623
   356.0,0.000381,0.000476,-0.003632,0.000219,  50.623
   356.2,0.000394,0.000473,-0.003533,0.000243,  50.618
   356.4,0.000397,0.000476,-0.003406,0.000243,  50.617
   356.6,0.000390,0.000481,-0.003342,0.000243,  50.613
   356.8,0.000391,0.000476,-0.003297,0.000219,  50.615
   357.0,0.000388,0.000473,-0.003297,0.000243,  50.620
   357.2,0.000374,0.000466,-0.003297,0.000206,  50.622
   357.4,0.000370,0.000457,-0.003307,0.000206,  50.631
   357.6,0.000351,0.000440,-0.003336,0.000216,  50.629
   357.8,0.000319,0.000421,-0.003336,0.000190,  50.636
   358.0,0.000293,0.000400,-0.003301,0.000125,  50.627
   358.2,0.000269,0.000372,-0.003241,0.000109,  50.620
   358.4,0.000234,0.000339,-0.003188,0.000083,  50.611
   358.6,0.000214,0.000327,-0.003161,0.000032,  50.605
   358.8,0.000207,0.000321,-0.003144,0.000069,  50.602
   359.0,0.000206,0.000331,-0.003118,0.000069,  50.597
   359.2,0.000226,0.000335,-0.003198,0.000045,  50.594
   359.4,0.000241,0.000346,-0.003333,0.000109,  50.594
   359.6,0.000256,0.000369,-0.003521,0.000136,  50.592
   359.8,0.000279,0.000378,-0.003656,0.000112,  50.586
   360.0,0.000291,0.000390,-0.003807,0.000163,  50.592
   360.2,0.000307,0.000392,-0.003943,0.000176,  50.601
   360.4,0.000316,0.000407,-0.003968,0.000139,  50.597
   360.6,0.000319,0.000416,-0.003904,0.000190,  50.598
   360.8,0.000319,0.000415,-0.003788,0.000190,  50.605
   361.0,0.000313,0.000428,-0.003706,0.000139,  50.602
   361.2,0.000310,0.000428,-0.003607,0.000163,  50.599
   361.4,0.000304,0.000422,-0.003500,0.000176,  50.595
   361.6,0.000297,0.000414,-0.003696,0.000125,  50.593
   361.8,0.000304,0.000410,-0.004054,0.000163,  50.592
   362.0,0.000299,0.000410,-0.004579,0.000176,  50.587
   362.2,0.000311,0.000412,-0.004535,0.000139,  50.589
   362.4,0.000321,0.000411,-0.004337,0.000190,  50.585
   362.6,0.000322,0.000426,-0.003943,0.000203,  50.588
   362.8,0.000336,0.000438,-0.003826,0.000179,  50.589
   363.0,0.000342,0.000442,-0.003789,0.000216,  50.589
   363.2,0.000344,0.000444,-0.003789,0.000230,  50.588
   363.4,0.000351,0.000446,-0.003933,0.000219,  50.588
   363.6,0.000354,0.000447,-0.004218,0.000243,  50.589
   363.8,0.000353,0.000452,-0.004610,0.000256,  50.588
   364.0,0.000363,0.000462,-0.004583,0.000219,  50.590
   364.2,0.000370,0.000461,-0.004422,0.000256,  50.599
   364.4,0.000376,0.000469,-0.004119,0.000270,  50.601
   364.6,0.000374,0.000477,-0.004047,0.000219,  50.605
   364.8,0.000385,0.000472,-0.004038,0.000256,  50.603
   365.0,0.000381,0.000472,-0.004067,0.000256,  50.602
   365.2,0.000381,0.000468,-0.003960,0.000219,  50.604
   365.4,0.000374,0.000460,-0.003816,0.000243,  50.609
   365.6,0.000368,0.000463,-0.003637,0.000243,  50.615
   365.8,0.000367,0.000461,-0.003558,0.000230,  50.621
   366.0,0.000362,0.000441,-0.003523,0.000192,  50.627
   366.2,0.000337,0.000428,-0.003542,0.000203,  50.630
   366.4,0.000307,0.000404,-0.003472,0.000152,  50.627
   366.6,0.000267,0.000380,-0.003393,0.000099,  50.624
   366.8,0.000245,0.000366,-0.003298,0.000083,  50.618
   367.0,0.000227,0.000343,-0.003245,0.000069,  50.614
   367.2,0.000219,0.000335,-0.003225,0.000032,  50.613
   367.4,0.000222,0.000342,-0.003218,0.000083,  50.610
   367.6,0.000227,0.000354,-0.003235,0.000096,  50.611
   367.8,0.000253,0.000355,-0.003235,0.000072,  50.611
   368.0,0.000271,0.000369,-0.003253,0.000136,  50.610
   368.2,0.000276,0.000383,-0.003295,0.000150,  50.616
   368.4,0.000291,0.000389,-0.003340,0.000125,  50.616
   368.6,0.000307,0.000401,-0.003420,0.000176,  50.622
   368.8,0.000319,0.000418,-0.003509,0.000203,  50.627
   369.0,0.000328,0.000423,-0.003527,0.000165,  50.629
   369.2,0.000334,0.000428,-0.003517,0.000203,  50.636
   369.4,0.000331,0.000426,-0.003480,0.000203,  50.639
   369.6,0.000325,0.000430,-0.003463,0.000152,  50.633
   369.8,0.000325,0.000422,-0.003472,0.000163,  50.631
   370.0,0.000319,0.000423,-0.003475,0.000163,  50.625
   370.2,0.000313,0.000418,-0.003467,0.000112,  50.624
   370.4,0.000319,0.000416,-0.003502,0.000163,  50.625
   370.6,0.000325,0.000419,-0.003537,0.000190,  50.624
   370.8,0.000334,0.000430,-0.003669,0.000152,  50.630
   371.0,0.000340,0.000434,-0.003848,0.000203,  50.629
   371.2,0.000349,0.000438,-0.004089,0.000216,  50.629
   371.4,0.000366,0.000452,-0.004220,0.000192,  50.632
   371.6,0.000372,0.000458,-0.004327,0.000230,  50.630
   371.8,0.000374,0.000462,-0.004399,0.000243,  50.634
   372.0,0.000390,0.000472,-0.004389,0.000206,  50.636
   372.2,0.000397,0.000476,-0.004335,0.000256,  50.640
   372.4,0.000395,0.000478,-0.004203,0.000270,  50.638
   372.6,0.000398,0.000483,-0.004114,0.000232,  50.640
   372.8,0.000391,0.000487,-0.004032,0.000270,  50.642
   373.0,0.000390,0.000487,-0.003908,0.000283,  50.651
   373.2,0.000397,0.000493,-0.004024,0.000246,  50.651
   373.4,0.000400,0.000490,-0.004265,0.000270,  50.651
   373.6,0.000403,0.000487,-0.004607,0.000283,  50.651
   373.8,0.000393,0.000493,-0.005025,0.000232,  50.658
   374.0,0.000397,0.000483,-0.005532,0.000256,  50.661
   374.2,0.000391,0.000474,-0.006144,0.000243,  50.665
   374.4,0.000371,0.000468,-0.006135,0.000179,  50.672
   374.6,0.000360,0.000446,-0.005853,0.000190,  50.673
   374.8,0.000336,0.000420,-0.005312,0.000163,  50.674
   375.0,0.000292,0.000394,-0.004965,0.000085,  50.668
   375.2,0.000256,0.000374,-0.004566,0.000083,  50.663
   375.4,0.000241,0.000365,-0.004167,0.000069,  50.658
   375.6,0.000232,0.000358,-0.003978,0.000069,  50.657
   375.8,0.000239,0.000356,-0.003862,0.000045,  50.662
   376.0,0.000245,0.000358,-0.003834,0.000096,  50.658
   376.2,0.000250,0.000368,-0.003735,0.000072,  50.657
   376.4,0.000269,0.000370,-0.003651,0.000085,  50.659
   376.6,0.000281,0.000388,-0.003527,0.000150,  50.661
   376.8,0.000286,0.000406,-0.003445,0.000176,  50.659
   377.0,0.000305,0.000414,-0.003418,0.000152,  50.661
   377.2,0.000318,0.000423,-0.003418,0.000203,  50.662
   377.4,0.000322,0.000426,-0.003488,0.000216,  50.666
   377.6,0.000336,0.000432,-0.003488,0.000192,  50.667
   377.8,0.000336,0.000429,-0.003513,0.000216,  50.674
   378.0,0.000326,0.000429,-0.003505,0.000203,  50.672
   378.2,0.000324,0.000429,-0.003515,0.000165,  50.672
   378.4,0.000318,0.000422,-0.003570,0.000176,  50.672
   378.6,0.000304,0.000419,-0.003616,0.000176,  50.670
   378.8,0.000302,0.000412,-0.003589,0.000139,  50.666
   379.0,0.000305,0.000410,-0.003544,0.000190,  50.665
   379.2,0.000307,0.000413,-0.003480,0.000203,  50.667
   379.4,0.000321,0.000419,-0.003443,0.000179,  50.665
   379.6,0.000330,0.000426,-0.003433,0.000216,  50.670
   379.8,0.000332,0.000436,-0.003451,0.000230,  50.666
   380.0,0.000348,0.000442,-0.003414,0.000206,  50.669
   380.2,0.000360,0.000448,-0.003359,0.000230,  50.664
   380.4,0.000359,0.000447,-0.003314,0.000230,  50.666
   380.6,0.000373,0.000454,-0.003349,0.000206,  50.665
   380.8,0.000382,0.000458,-0.003404,0.000243,  50.666
   381.0,0.000378,0.000469,-0.003496,0.000256,  50.662
   381.2,0.000388,0.000475,-0.003496,0.000219,  50.666
   381.4,0.000394,0.000479,-0.003486,0.000256,  50.664
   381.6,0.000390,0.000487,-0.003449,0.000256,  50.667
   381.8,0.000400,0.000494,-0.003449,0.000219,  50.669
   382.0,0.000400,0.000498,-0.003468,0.000243,  50.665
   382.2,0.000393,0.000495,-0.003507,0.000243,  50.671
   382.4,0.000397,0.000495,-0.003490,0.000206,  50.671
   382.6,0.000391,0.000494,-0.003463,0.000230,  50.676
   382.8,0.000374,0.000479,-0.003420,0.000216,  50.684
   383.0,0.000360,0.000466,-0.003350,0.000152,  50.689
   383.2,0.000336,0.000451,-0.003270,0.000150,  50.685
   383.4,0.000308,0.000417,-0.003200,0.000136,  50.681
   383.6,0.000270,0.000383,-0.003327,0.000072,  50.679
   383.8,0.000241,0.000363,-0.003578,0.000083,  50.674
   384.0,0.000229,0.000356,-0.003928,0.000083,  50.670
   384.2,0.000221,0.000361,-0.003955,0.000072,  50.671
   384.4,0.000238,0.000362,-0.003891,0.000123,  50.672
   384.6,0.000250,0.000375,-0.003730,0.000136,  50.668
   384.8,0.000258,0.000389,-0.003665,0.000150,  50.672
   385.0,0.000281,0.000398,-0.003593,0.000125,  50.674
   385.2,0.000296,0.000411,-0.003539,0.000176,  50.675
   385.4,0.000304,0.000422,-0.003547,0.000152,  50.677
   385.6,0.000321,0.000425,-0.003539,0.000165,  50.672
   385.8,0.000333,0.000437,-0.003626,0.000216,  50.679
   386.0,0.000335,0.000447,-0.003708,0.000230,  50.680
   386.2,0.000351,0.000446,-0.003706,0.000206,  50.690
   386.4,0.000351,0.000446,-0.003644,0.000230,  50.690
   386.6,0.000338,0.000447,-0.003564,0.000216,  50.692
   386.8,0.000333,0.000442,-0.003716,0.000165,  50.685
   387.0,0.000330,0.000434,-0.003959,0.000176,  50.682
   387.2,0.000319,0.000427,-0.004343,0.000176,  50.681
   387.4,0.000324,0.000425,-0.004333,0.000139,  50.682
   387.6,0.000327,0.000422,-0.004190,0.000176,  50.683
   387.8,0.000322,0.000432,-0.003904,0.000203,  50.681
   388.0,0.000339,0.000436,-0.003805,0.000165,  50.679
   388.2,0.000348,0.000439,-0.003751,0.000203,  50.681
   388.4,0.000354,0.000444,-0.003698,0.000216,  50.684
   388.6,0.000368,0.000455,-0.003644,0.000206,  50.686
   388.8,0.000374,0.000457,-0.003589,0.000243,  50.684
   389.0,0.000377,0.000465,-0.003562,0.000256,  50.686
   389.2,0.000380,0.000473,-0.003758,0.000219,  50.686
   389.4,0.000386,0.000472,-0.004061,0.000256,  50.687
   389.6,0.000382,0.000477,-0.004498,0.000270,  50.688
   389.8,0.000385,0.000479,-0.004719,0.000219,  50.695
   390.0,0.000388,0.000479,-0.004862,0.000256,  50.692
   390.2,0.000391,0.000481,-0.004961,0.000270,  50.696
   390.4,0.000392,0.000483,-0.005058,0.000219,  50.698
   390.6,0.000389,0.000478,-0.005130,0.000256,  50.697
   390.8,0.000379,0.000476,-0.005174,0.000256,  50.707
   391.0,0.000370,0.000476,-0.004996,0.000206,  50.711
   391.2,0.000354,0.000456,-0.004711,0.000230,  50.711
   391.4,0.000335,0.000447,-0.004302,0.000216,  50.714
   391.6,0.000318,0.000432,-0.004071,0.000139,  50.715
   391.8,0.000293,0.000408,-0.003902,0.000136,  50.713
   392.0,0.000261,0.000380,-0.003743,0.000123,  50.704
   392.2,0.000241,0.000350,-0.003656,0.000059,  50.701
   392.4,0.000214,0.000344,-0.003665,0.000083,  50.695
   392.6,0.000210,0.000339,-0.003720,0.000083,  50.696
   392.8,0.000206,0.000347,-0.003685,0.000072,  50.694
   393.0,0.000229,0.000351,-0.003700,0.000123,  50.690
   393.2,0.000244,0.000363,-0.003698,0.000136,  50.690
   393.4,0.000249,0.000374,-0.003830,0.000125,  50.698
   393.6,0.000272,0.000388,-0.004052,0.000176,  50.693
   393.8,0.000287,0.000400,-0.004337,0.000203,  50.691
   394.0,0.000295,0.000412,-0.004354,0.000179,  50.691
   394.2,0.000318,0.000427,-0.004283,0.000216,  50.693
   394.4,0.000330,0.000439,-0.004104,0.000216,  50.697
   394.6,0.000332,0.000438,-0.004015,0.000243,  50.701
   394.8,0.000348,0.000437,-0.003908,0.000192,  50.702
   395.0,0.000348,0.000439,-0.003826,0.000230,  50.706
   395.2,0.000332,0.000437,-0.003764,0.000179,  50.707
   395.4,0.000324,0.000432,-0.003702,0.000165,  50.700
   395.6,0.000321,0.000425,-0.003642,0.000176,  50.699
   395.8,0.000307,0.000417,-0.003616,0.000176,  50.697
   396.0,0.000311,0.000422,-0.003581,0.000139,  50.696
   396.2,0.000315,0.000425,-0.003579,0.000190,  50.700
   396.4,0.000325,0.000427,-0.003570,0.000203,  50.700
   396.6,0.000346,0.000428,-0.003560,0.000179,  50.702
   396.8,0.000355,0.000439,-0.003550,0.000216,  50.702
   397.0,0.000357,0.000451,-0.003577,0.000230,  50.706
   397.2,0.000362,0.000455,-0.003605,0.000243,  50.706
   397.4,0.000371,0.000462,-0.003640,0.000267,  50.703
   397.6,0.000373,0.000464,-0.003711,0.000267,  50.707
   397.8,0.000379,0.000468,-0.003719,0.000267,  50.707
   398.0,0.000385,0.000471,-0.003674,0.000267,  50.711
   398.2,0.000381,0.000479,-0.003630,0.000267,  50.717
   398.4,0.000394,0.000479,-0.003593,0.000281,  50.719
   398.6,0.000400,0.000478,-0.003573,0.000281,  50.720
   398.8,0.000390,0.000478,-0.003521,0.000281,  50.722
   399.0,0.000394,0.000486,-0.003503,0.000294,  50.723
   399.2,0.000384,0.000478,-0.003530,0.000281,  50.724
   399.4,0.000371,0.000476,-0.003577,0.000267,  50.731
   399.6,0.000359,0.000471,-0.003704,0.000254,  50.727
   399.8,0.000330,0.000451,-0.003918,0.000227,  50.737
   400.0,0.000304,0.000432,-0.004188,0.000200,  50.751
   400.2,0.000264,0.000407,-0.004135,0.000160,  50.751
   400.4,0.000240,0.000388,-0.003966,0.000120,  50.749
   400.6,0.000221,0.000369,-0.003673,0.000107,  50.748
   400.8,0.000214,0.000348,-0.003566,0.000069,  50.740
   401.0,0.000210,0.000345,-0.003477,0.000069,  50.744
   401.2,0.000212,0.000345,-0.003440,0.000069,  50.739
   401.4,0.000241,0.000341,-0.003402,0.000059,  50.743
   401.6,0.000250,0.000348,-0.003365,0.000123,  50.743
   401.8,0.000258,0.000356,-0.003328,0.000150,  50.742
   402.0,0.000272,0.000378,-0.003371,0.000139,  50.742
   402.2,0.000284,0.000389,-0.003451,0.000176,  50.745
   402.4,0.000299,0.000400,-0.003560,0.000203,  50.747
   402.6,0.000319,0.000422,-0.003533,0.000179,  50.743
   402.8,0.000334,0.000434,-0.003486,0.000216,  50.746
   403.0,0.000346,0.000438,-0.003379,0.000230,  50.748
   403.2,0.000359,0.000445,-0.003334,0.000243,  50.752
   403.4,0.000365,0.000447,-0.003334,0.000254,  50.754
   403.6,0.000362,0.000448,-0.003326,0.000241,  50.755
   403.8,0.000356,0.000447,-0.003326,0.000190,  50.752
   404.0,0.000337,0.000442,-0.003319,0.000163,  50.749
   404.2,0.000331,0.000437,-0.003330,0.000150,  50.751
   404.4,0.000331,0.000430,-0.003276,0.000112,  50.755
   404.6,0.000328,0.000436,-0.003221,0.000125,  50.749
   404.8,0.000334,0.000440,-0.003114,0.000163,  50.752
   405.0,0.000343,0.000450,-0.003104,0.000139,  50.753
   405.2,0.000356,0.000457,-0.003124,0.000152,  50.760
   405.4,0.000368,0.000463,-0.003177,0.000203,  50.761
   405.6,0.000377,0.000469,-0.003268,0.000216,  50.759
   405.8,0.000386,0.000476,-0.003286,0.000192,  50.757
   406.0,0.000398,0.000477,-0.003286,0.000230,  50.764
   406.2,0.000408,0.000493,-0.003268,0.000230,  50.764
   406.4,0.000417,0.000501,-0.003268,0.000206,  50.767
   406.6,0.000429,0.000509,-0.003270,0.000243,  50.768
   406.8,0.000434,0.000518,-0.003272,0.000256,  50.769
   407.0,0.000440,0.000521,-0.003220,0.000219,  50.773
   407.2,0.000446,0.000525,-0.003130,0.000256,  50.772
   407.4,0.000445,0.000534,-0.003016,0.000270,  50.769
   407.6,0.000455,0.000537,-0.002928,0.000219,  50.777
   407.8,0.000452,0.000537,-0.002858,0.000256,  50.777
   408.0,0.000433,0.000536,-0.002790,0.000243,  50.773
   408.2,0.000428,0.000532,-0.002630,0.000179,  50.778
   408.4,0.000409,0.000515,-0.002426,0.000190,  50.776
   408.6,0.000368,0.000490,-0.002221,0.000150,  50.779
   408.8,0.000339,0.000467,-0.002457,0.000072,  50.775
   409.0,0.000330,0.000450,-0.002918,0.000069,  50.775
   409.2,0.000316,0.000438,-0.003601,0.000069,  50.772
   409.4,0.000327,0.000431,-0.003531,0.000045,  50.779
   409.6,0.000339,0.000430,-0.003202,0.000096,  50.777
   409.8,0.000360,0.000444,-0.002595,0.000123,  50.776
   410.0,0.000392,0.000463,-0.002363,0.000112,  50.777
   410.2,0.000417,0.000474,-0.002203,0.000150,  50.781
   410.4,0.000444,0.000491,-0.002072,0.000176,  50.784
   410.6,0.000472,0.000515,-0.001995,0.000152,  50.784
   410.8,0.000490,0.000534,-0.001997,0.000203,  50.782
   411.0,0.000512,0.000550,-0.002046,0.000216,  50.783
   411.2,0.000517,0.000564,-0.001915,0.000192,  50.783
   411.4,0.000539,0.000584,-0.001705,0.000230,  50.783
   411.6,0.000561,0.000593,-0.001432,0.000230,  50.785
   411.8,0.000579,0.000606,-0.001141,0.000192,  50.781
   412.0,0.000600,0.000610,-0.000814,0.000230,  50.782
   412.2,0.000610,0.000618,-0.000425,0.000216,  50.785
   412.4,0.000607,0.000619,-0.000088,0.000165,  50.778
   412.6,0.000600,0.000616,0.000221,0.000176,  50.777
   412.8,0.000610,0.000615,0.000531,0.000176,  50.776
   413.0,0.000616,0.000617,0.000780,0.000139,  50.773
   413.2,0.000628,0.000618,0.000984,0.000176,  50.777
   413.4,0.000646,0.000630,0.001179,0.000203,  50.771
   413.6,0.000665,0.000647,0.001456,0.000165,  50.773
   413.8,0.000686,0.000660,0.001759,0.000203,  50.775
   414.0,0.000714,0.000673,0.002082,0.000203,  50.771
   414.2,0.000741,0.000698,0.002421,0.000230,  50.772
   414.4,0.000772,0.000716,0.002750,0.000179,  50.771
   414.6,0.000806,0.000732,0.003087,0.000230,  50.766
   414.8,0.000839,0.000754,0.003397,0.000206,  50.771
   415.0,0.000873,0.000775,0.003674,0.000206,  50.767
   415.2,0.000913,0.000794,0.003963,0.000243,  50.769
   415.4,0.000950,0.000818,0.004210,0.000256,  50.761
   415.6,0.000983,0.000847,0.004737,0.000219,  50.761
   415.8,0.001026,0.000871,0.005327,0.000256,  50.763
   416.0,0.001069,0.000892,0.006026,0.000256,  50.761
   416.2,0.001112,0.000916,0.006726,0.000219,  50.764
   416.4,0.001140,0.000931,0.007428,0.000243,  50.766
   416.6,0.001158,0.000935,0.008192,0.000230,  50.770
   416.8,0.001167,0.000937,0.008759,0.000165,  50.771
   417.0,0.001170,0.000935,0.009209,0.000163,  50.769
   417.2,0.001161,0.000923,0.009585,0.000150,  50.770
   417.4,0.001146,0.000906,0.009997,0.000072,  50.765
   417.6,0.001170,0.000914,0.010381,0.000083,  50.760
   417.8,0.001207,0.000924,0.010744,0.000083,  50.759
   418.0,0.001259,0.000939,0.011266,0.000072,  50.755
   418.2,0.001317,0.000960,0.011834,0.000123,  50.760
   418.4,0.001382,0.000995,0.012476,0.000136,  50.750
   418.6,0.001452,0.001043,0.013205,0.000125,  50.755
   418.8,0.001526,0.001082,0.014044,0.000176,  50.750
   419.0,0.001603,0.001128,0.014899,0.000203,  50.747
   419.2,0.001683,0.001180,0.015796,0.000179,  50.751
   419.4,0.001765,0.001224,0.016766,0.000216,  50.748
   419.6,0.001851,0.001276,0.017783,0.000243,  50.742
   419.8,0.001941,0.001331,0.018838,0.000219,  50.747
   420.0,0.002036,0.001380,0.019967,0.000256,  50.742
   420.2,0.002131,0.001437,0.021151,0.000270,  50.739
   420.4,0.002229,0.001499,0.022552,0.000219,  50.746
   420.6,0.002300,0.001540,0.024080,0.000256,  50.748
   420.8,0.002354,0.001588,0.025726,0.000243,  50.744
   421.0,0.002397,0.001631,0.027048,0.000179,  50.744
   421.2,0.002431,0.001665,0.028242,0.000176,  50.738
   421.4,0.002494,0.001703,0.029312,0.000176,  50.728
   421.6,0.002579,0.001742,0.030369,0.000139,  50.728
   421.8,0.002662,0.001779,0.031342,0.000190,  50.727
   422.0,0.002745,0.001829,0.032229,0.000203,  50.723
   422.2,0.002824,0.001879,0.033301,0.000179,  50.709
   422.4,0.002920,0.001930,0.034422,0.000216,  50.708
   422.6,0.003022,0.001989,0.035583,0.000243,  50.709
   422.8,0.003125,0.002051,0.037020,0.000219,  50.707
   423.0,0.003250,0.002116,0.038616,0.000256,  50.702
   423.2,0.003379,0.002189,0.040376,0.000270,  50.707
   423.4,0.003504,0.002270,0.042240,0.000270,  50.703
   423.6,0.003650,0.002348,0.044199,0.000232,  50.708
   423.8,0.003798,0.002433,0.046296,0.000270,  50.706
   424.0,0.003942,0.002523,0.048182,0.000259,  50.708
   424.2,0.004107,0.002620,0.049970,0.000259,  50.713
   424.4,0.004277,0.002719,0.051761,0.000297,  50.713
   424.6,0.004439,0.002823,0.053432,0.000310,  50.716
   424.8,0.004629,0.002908,0.055762,0.000259,  50.723
   425.0,0.004768,0.002982,0.058307,0.000283,  50.728
   425.2,0.004878,0.003051,0.061069,0.000270,  50.741
   425.4,0.004981,0.003093,0.063001,0.000192,  50.746
   425.6,0.005074,0.003128,0.064621,0.000190,  50.738
   425.8,0.005144,0.003150,0.065886,0.000176,  50.734
   426.0,0.005213,0.003198,0.067646,0.000125,  50.727
   426.2,0.005340,0.003247,0.069488,0.000150,  50.725
   426.4,0.005489,0.003308,0.071421,0.000163,  50.728
   426.6,0.005673,0.003377,0.073449,0.000139,  50.729
   426.8,0.005849,0.003465,0.075585,0.000190,  50.728
   427.0,0.006035,0.003562,0.077824,0.000203,  50.730
   427.2,0.006234,0.003679,0.080276,0.000179,  50.729
   427.4,0.006445,0.003785,0.082884,0.000230,  50.730
   427.6,0.006659,0.003901,0.085679,0.000256,  50.729
   427.8,0.006883,0.004027,0.088723,0.000232,  50.729
   428.0,0.007119,0.004155,0.091955,0.000270,  50.729
   428.2,0.007364,0.004297,0.095395,0.000283,  50.730
   428.4,0.007613,0.004446,0.098944,0.000259,  50.733
   428.6,0.007878,0.004595,0.102679,0.000297,  50.731
   428.8,0.008152,0.004752,0.106588,0.000310,  50.740
   429.0,0.008435,0.004911,0.110473,0.000272,  50.741
   429.2,0.008672,0.005049,0.114500,0.000297,  50.741
   429.4,0.008888,0.005182,0.118611,0.000297,  50.740
   429.6,0.009084,0.005309,0.122028,0.000232,  50.740
   429.8,0.009266,0.005433,0.125160,0.000230,  50.738
   430.0,0.009431,0.005540,0.127911,0.000243,  50.733
   430.2,0.009574,0.005643,0.130831,0.000206,  50.731
   430.4,0.009712,0.005762,0.133675,0.000256,  50.730
   430.6,0.009925,0.005881,0.136416,0.000270,  50.728
   430.8,0.010157,0.006002,0.139654,0.000232,  50.729
   431.0,0.010407,0.006143,0.143112,0.000283,  50.728
   431.2,0.010673,0.006291,0.146771,0.000297,  50.725
   431.4,0.010949,0.006446,0.150625,0.000259,  50.730
   431.6,0.011238,0.006610,0.154706,0.000310,  50.730
   431.8,0.011542,0.006788,0.158942,0.000323,  50.730
   432.0,0.011863,0.006970,0.163550,0.000299,  50.726
   432.2,0.012196,0.007153,0.168408,0.000337,  50.726
   432.4,0.012536,0.007351,0.173569,0.000350,  50.725
   432.6,0.012891,0.007557,0.178942,0.000350,  50.728
   432.8,0.013257,0.007767,0.184559,0.000326,  50.730
   433.0,0.013632,0.007987,0.190421,0.000363,  50.736
   433.2,0.014014,0.008217,0.195728,0.000326,  50.735
   433.4,0.014403,0.008394,0.200904,0.000299,  50.738
   433.6,0.014709,0.008554,0.205931,0.000323,  50.739
   433.8,0.014969,0.008696,0.209664,0.000297,  50.741
   434.0,0.015194,0.008823,0.212660,0.000246,  50.737
   434.2,0.015428,0.008931,0.214867,0.000243,  50.732
   434.4,0.015647,0.009027,0.216309,0.000230,  50.725
   434.6,0.015846,0.009184,0.220109,0.000192,  50.725
   434.8,0.016141,0.009357,0.224393,0.000230,  50.722
   435.0,0.016478,0.009541,0.229221,0.000243,  50.721
   435.2,0.016846,0.009705,0.234012,0.000206,  50.705
   435.4,0.017212,0.009859,0.239010,0.000256,  50.704
   435.6,0.017591,0.010017,0.244229,0.000270,  50.704
   435.8,0.017983,0.010164,0.249284,0.000246,  50.702
   436.0,0.018388,0.010370,0.254333,0.000310,  50.700
   436.2,0.018802,0.010606,0.259350,0.000323,  50.702
   436.4,0.019236,0.010865,0.265385,0.000299,  50.701
   436.6,0.019680,0.011110,0.271910,0.000350,  50.698
   436.8,0.020131,0.011369,0.278924,0.000377,  50.706
   437.0,0.020609,0.011635,0.285915,0.000353,  50.706
   437.2,0.021087,0.011900,0.293176,0.000390,  50.706
   437.4,0.021566,0.012178,0.300694,0.000403,  50.710
   437.6,0.022059,0.012463,0.307488,0.000353,  50.710
   437.8,0.022477,0.012705,0.313993,0.000377,  50.710
   438.0,0.022856,0.012938,0.320242,0.000377,  50.707
   438.2,0.023208,0.013159,0.326189,0.000313,  50.708
   438.4,0.023579,0.013362,0.331825,0.000323,  50.704
   438.6,0.023936,0.013553,0.337122,0.000323,  50.701
   438.8,0.024299,0.013742,0.342727,0.000299,  50.701
   439.0,0.024632,0.013950,0.348303,0.000350,  50.699
   439.2,0.024946,0.014169,0.353887,0.000363,  50.698
   439.4,0.025251,0.014395,0.359980,0.000326,  50.695
   439.6,0.025537,0.014632,0.366283,0.000377,  50.694
   439.8,0.025962,0.014883,0.372804,0.000390,  50.692
   440.0,0.026433,0.015143,0.379669,0.000353,  50.696
   440.2,0.026947,0.015410,0.386774,0.000403,  50.697
   440.4,0.027442,0.015693,0.394128,0.000430,  50.693
   440.6,0.027946,0.015993,0.401653,0.000393,  50.690
   440.8,0.028465,0.016294,0.409410,0.000444,  50.689
   441.0,0.029004,0.016602,0.417369,0.000457,  50.693
   441.2,0.029549,0.016913,0.425735,0.000433,  50.691
   441.4,0.030120,0.017225,0.434394,0.000470,  50.689
   441.6,0.030667,0.017553,0.443377,0.000470,  50.693
   441.8,0.031202,0.017875,0.451168,0.000457,  50.692
   442.0,0.031748,0.018129,0.458393,0.000419,  50.700
   442.2,0.032179,0.018355,0.465079,0.000430,  50.697
   442.4,0.032544,0.018549,0.471042,0.000366,  50.695
   442.6,0.032865,0.018750,0.476251,0.000339,  50.690
   442.8,0.033231,0.018931,0.480806,0.000337,  50.684
   443.0,0.033587,0.019101,0.485962,0.000337,  50.680
   443.2,0.033948,0.019339,0.491010,0.000313,  50.675
   443.4,0.034398,0.019594,0.496069,0.000350,  50.669
   443.6,0.034881,0.019885,0.500956,0.000363,  50.674
   443.8,0.035418,0.020168,0.507589,0.000339,  50.671
   444.0,0.035940,0.020456,0.514959,0.000403,  50.668
   444.2,0.036467,0.020764,0.523096,0.000430,  50.668
   444.4,0.037017,0.021078,0.530864,0.000393,  50.669
   444.6,0.037577,0.021390,0.538843,0.000444,  50.664
   444.8,0.038140,0.021727,0.546986,0.000470,  50.665
   445.0,0.038732,0.022009,0.555451,0.000446,  50.663
   445.2,0.039327,0.022273,0.564084,0.000497,  50.659
   445.4,0.039920,0.022527,0.572885,0.000510,  50.660
   445.6,0.040541,0.022757,0.581927,0.000486,  50.660
   445.8,0.041135,0.023072,0.591102,0.000537,  50.658
   446.0,0.041710,0.023419,0.600474,0.000551,  50.661
   446.2,0.042297,0.023796,0.609193,0.000500,  50.662
   446.4,0.042819,0.024104,0.617652,0.000524,  50.661
   446.6,0.043291,0.024397,0.625833,0.000524,  50.661
   446.8,0.043748,0.024671,0.633177,0.000497,  50.652
   447.0,0.044219,0.024935,0.639817,0.000508,  50.645
   447.2,0.044672,0.025179,0.645780,0.000521,  50.646
   447.4,0.045134,0.025410,0.652497,0.000521,  50.638
   447.6,0.045636,0.025679,0.659181,0.000535,  50.637
   447.8,0.046152,0.025959,0.665834,0.000548,  50.634
   448.0,0.046704,0.026248,0.673417,0.000548,  50.632
   448.2,0.047171,0.026551,0.681356,0.000561,  50.630
   448.4,0.047603,0.026863,0.689931,0.000588,  50.626
   448.6,0.048017,0.027183,0.698448,0.000588,  50.627
   448.8,0.048396,0.027514,0.706956,0.000601,  50.624
   449.0,0.048939,0.027852,0.715727,0.000615,  50.619
   449.2,0.049539,0.028195,0.724610,0.000604,  50.616
   449.4,0.050184,0.028544,0.733494,0.000604,  50.612
   449.6,0.050802,0.028901,0.742482,0.000617,  50.613
   449.8,0.051421,0.029260,0.750819,0.000593,  50.615
   450.0,0.052062,0.029607,0.758747,0.000631,  50.611
   450.2,0.052645,0.029948,0.766437,0.000631,  50.617
   450.4,0.053204,0.030291,0.774056,0.000580,  50.615
   450.6,0.053751,0.030556,0.781141,0.000577,  50.616
   450.8,0.054197,0.030790,0.788095,0.000564,  50.613
   451.0,0.054578,0.030992,0.795124,0.000500,  50.608
   451.2,0.054912,0.031219,0.801793,0.000497,  50.601
   451.4,0.055335,0.031444,0.808312,0.000484,  50.591
   451.6,0.055766,0.031666,0.815817,0.000497,  50.584
   451.8,0.056229,0.031939,0.823705,0.000473,  50.579
   452.0,0.056730,0.032235,0.831882,0.000537,  50.560
   452.2,0.057270,0.032557,0.838733,0.000526,  50.556
   452.4,0.057843,0.032862,0.845077,0.000540,  50.551
   452.6,0.058402,0.033182,0.850898,0.000604,  50.549
   452.8,0.058965,0.033509,0.856038,0.000631,  50.544
   453.0,0.059540,0.033833,0.863688,0.000620,  50.536
   453.2,0.060116,0.034166,0.871876,0.000658,  50.533
   453.4,0.060692,0.034513,0.880639,0.000684,  50.529
   453.6,0.061283,0.034862,0.889012,0.000660,  50.527
   453.8,0.061875,0.035209,0.897418,0.000698,  50.521
   454.0,0.062468,0.035561,0.905856,0.000711,  50.522
   454.2,0.063079,0.035852,0.914575,0.000700,  50.525
   454.4,0.063645,0.036104,0.923186,0.000724,  50.521
   454.6,0.064184,0.036341,0.931821,0.000724,  50.522
   454.8,0.064723,0.036543,0.940171,0.000687,  50.521
   455.0,0.065217,0.036819,0.947910,0.000711,  50.515
   455.2,0.065675,0.037106,0.955329,0.000698,  50.512
   455.4,0.066120,0.037403,0.962052,0.000647,  50.506
   455.6,0.066576,0.037659,0.968069,0.000671,  50.500
   455.8,0.067021,0.037906,0.973515,0.000658,  50.496
   456.0,0.067479,0.038134,0.980023,0.000658,  50.485
   456.2,0.067968,0.038403,0.986817,0.000708,  50.482
   456.4,0.068465,0.038678,0.993900,0.000722,  50.477
   456.6,0.068992,0.038971,1.000907,0.000749,  50.477
   456.8,0.069512,0.039267,1.007858,0.000762,  50.468
   457.0,0.070032,0.039568,1.014747,0.000789,  50.467
   457.2,0.070576,0.039876,1.021739,0.000802,  50.465
   457.4,0.071112,0.040187,1.028860,0.000802,  50.459
   457.6,0.071645,0.040505,1.036100,0.000829,  50.456
   457.8,0.072197,0.040819,1.043438,0.000829,  50.453
   458.0,0.072663,0.041142,1.050704,0.000842,  50.450
   458.2,0.073086,0.041465,1.058288,0.000856,  50.452
   458.4,0.073485,0.041791,1.065604,0.000869,  50.451
   458.6,0.073840,0.042083,1.072637,0.000856,  50.455
   458.8,0.074271,0.042366,1.079589,0.000842,  50.456
   459.0,0.074725,0.042633,1.085755,0.000816,  50.463
   459.2,0.075183,0.042848,1.091342,0.000775,  50.460
   459.4,0.075546,0.043038,1.096562,0.000762,  50.449
   459.6,0.075848,0.043196,1.102092,0.000698,  50.446
   459.8,0.076122,0.043406,1.107258,0.000684,  50.419
   460.0,0.076508,0.043629,1.112037,0.000698,  50.410
   460.2,0.076917,0.043863,1.118001,0.000674,  50.403
   460.4,0.077373,0.044113,1.124275,0.000738,  50.403
   460.6,0.077826,0.044381,1.130403,0.000751,  50.398
   460.8,0.078288,0.044670,1.136386,0.000778,  50.395
   461.0,0.078779,0.044946,1.142460,0.000754,  50.388
   461.2,0.079248,0.045222,1.148124,0.000818,  50.387
   461.4,0.079711,0.045504,1.153103,0.000807,  50.383
   461.6,0.080188,0.045789,1.157878,0.000821,  50.378
   461.8,0.080656,0.046066,1.161953,0.000872,  50.379
   462.0,0.081120,0.046351,1.165794,0.000898,  50.368
   462.2,0.081596,0.046633,1.171265,0.000874,  50.369
   462.4,0.082057,0.046905,1.176822,0.000925,  50.370
   462.6,0.082523,0.047188,1.182741,0.000939,  50.369
   462.8,0.082981,0.047448,1.188143,0.000901,  50.366
   463.0,0.083411,0.047699,1.193888,0.000925,  50.359
   463.2,0.083837,0.047946,1.199416,0.000925,  50.363
   463.4,0.084242,0.048148,1.204733,0.000888,  50.361
   463.6,0.084609,0.048327,1.210108,0.000925,  50.363
   463.8,0.084955,0.048482,1.215551,0.000912,  50.353
   464.0,0.085279,0.048616,1.219117,0.000861,  50.345
   464.2,0.085625,0.048797,1.221581,0.000885,  50.342
   464.4,0.085964,0.048987,1.222926,0.000885,  50.336
   464.6,0.086318,0.049190,1.227065,0.000848,  50.328
   464.8,0.086691,0.049398,1.232106,0.000912,  50.330
   465.0,0.087057,0.049621,1.238067,0.000939,  50.322
   465.2,0.087450,0.049858,1.242655,0.000915,  50.318
   465.4,0.087831,0.050080,1.246700,0.000979,  50.315
   465.6,0.088210,0.050306,1.250180,0.001006,  50.307
   465.8,0.088603,0.050544,1.254875,0.000981,  50.291
   466.0,0.088985,0.050779,1.259606,0.001019,  50.288
   466.2,0.089357,0.051012,1.264700,0.001032,  50.288
   466.4,0.089737,0.051247,1.268934,0.001032,  50.282
   466.6,0.090109,0.051477,1.272909,0.001070,  50.283
   466.8,0.090478,0.051702,1.275954,0.001070,  50.284
   467.0,0.090840,0.051930,1.280275,0.001070,  50.283
   467.2,0.091115,0.052123,1.284618,0.001070,  50.288
   467.4,0.091338,0.052301,1.288982,0.001043,  50.290
   467.6,0.091511,0.052458,1.292745,0.001003,  50.286
   467.8,0.091647,0.052590,1.296202,0.000949,  50.287
   468.0,0.091847,0.052707,1.298298,0.000936,  50.275
   468.2,0.092044,0.052800,1.301462,0.000923,  50.269
   468.4,0.092244,0.052949,1.304656,0.000909,  50.261
   468.6,0.092509,0.053113,1.307532,0.000936,  50.256
   468.8,0.092808,0.053299,1.310740,0.000963,  50.251
   469.0,0.093137,0.053488,1.314336,0.000989,  50.253
   469.2,0.093452,0.053682,1.317589,0.001016,  50.247
   469.4,0.093763,0.053895,1.320167,0.001043,  50.246
   469.6,0.094082,0.054086,1.323155,0.001070,  50.243
   469.8,0.094386,0.054270,1.325067,0.001083,  50.238
   470.0,0.094679,0.054459,1.327675,0.001072,  50.238
   470.2,0.094975,0.054643,1.330644,0.001086,  50.236
   470.4,0.095265,0.054817,1.333635,0.001099,  50.232
   470.6,0.095543,0.054996,1.336287,0.001089,  50.231
   470.8,0.095828,0.055169,1.338956,0.001089,  50.240
   471.0,0.096092,0.055345,1.341271,0.001139,  50.233
   471.2,0.096355,0.055516,1.343209,0.001153,  50.237
   471.4,0.096611,0.055679,1.345155,0.001102,  50.228
   471.6,0.096856,0.055834,1.346727,0.001126,  50.226
   471.8,0.097115,0.055989,1.347534,0.001139,  50.228
   472.0,0.097360,0.056133,1.349894,0.001089,  50.229
   472.2,0.097563,0.056264,1.352267,0.001113,  50.226
   472.4,0.097758,0.056385,1.354661,0.001113,  50.224
   472.6,0.097927,0.056502,1.357045,0.001062,  50.220
   472.8,0.098115,0.056612,1.358629,0.001072,  50.212
   473.0,0.098318,0.056714,1.360219,0.001086,  50.214
   473.2,0.098513,0.056813,1.361884,0.001062,  50.210
   473.4,0.098706,0.056915,1.362367,0.001113,  50.205
   473.6,0.098913,0.057003,1.362490,0.001139,  50.201
   473.8,0.099116,0.057100,1.363717,0.001129,  50.200
   474.0,0.099309,0.057223,1.365726,0.001180,  50.201
   474.2,0.099504,0.057349,1.367303,0.001193,  50.198
   474.4,0.099697,0.057489,1.368910,0.001182,  50.196
   474.6,0.099889,0.057609,1.370125,0.001206,  50.196
   474.8,0.100070,0.057730,1.371343,0.001220,  50.193
   475.0,0.100258,0.057851,1.372565,0.001196,  50.190
   475.2,0.100428,0.057964,1.373389,0.001233,  50.177
   475.4,0.100582,0.058074,1.374223,0.001233,  50.173
   475.6,0.100740,0.058174,1.375050,0.001182,  50.175
   475.8,0.100852,0.058257,1.375887,0.001180,  50.172
   476.0,0.100945,0.058327,1.376306,0.001153,  50.175
   476.2,0.101014,0.058386,1.377138,0.001089,  50.169
   476.4,0.101096,0.058434,1.377566,0.001059,  50.167
   476.6,0.101184,0.058488,1.377994,0.001046,  50.159
   476.8,0.101261,0.058526,1.378829,0.001022,  50.146
   477.0,0.101358,0.058601,1.379665,0.001059,  50.146
   477.2,0.101458,0.058692,1.380503,0.001072,  50.141
   477.4,0.101574,0.058808,1.381343,0.001075,  50.139
   477.6,0.101709,0.058910,1.381782,0.001139,  50.136
   477.8,0.101837,0.059013,1.382648,0.001166,  50.133
   478.0,0.101984,0.059120,1.383499,0.001156,  50.133
   478.2,0.102142,0.059212,1.383081,0.001206,  50.129
   478.4,0.102270,0.059295,1.382671,0.001233,  50.126
   478.6,0.102371,0.059371,1.382679,0.001223,  50.125
   478.8,0.102482,0.059446,1.382261,0.001273,  50.122
   479.0,0.102587,0.059514,1.381435,0.001287,  50.116
   479.2,0.102673,0.059576,1.380996,0.001263,  50.119
   479.4,0.102765,0.059638,1.380965,0.001300,  50.122
   479.6,0.102847,0.059700,1.380080,0.001300,  50.117
   479.8,0.102905,0.059751,1.380057,0.001300,  50.109
   480.0,0.102971,0.059810,1.379619,0.001263,  50.105
   480.2,0.103048,0.059872,1.379197,0.001287,  50.110
   480.4,0.103122,0.059932,1.379212,0.001249,  50.108
   480.6,0.103211,0.059983,1.378821,0.001249,  50.109
   480.8,0.103269,0.060018,1.377619,0.001273,  50.107
   481.0,0.103308,0.060053,1.377643,0.001260,  50.101
   481.2,0.103343,0.060088,1.377650,0.001196,  50.102
   481.4,0.103385,0.060115,1.377650,0.001220,  50.094
   481.6,0.103425,0.060145,1.377222,0.001233,  50.093
   481.8,0.103475,0.060180,1.376802,0.001196,  50.092
   482.0,0.103510,0.060210,1.375964,0.001247,  50.084
   482.2,0.103537,0.060253,1.375538,0.001273,  50.087
   482.4,0.103576,0.060282,1.374694,0.001249,  50.086
   482.6,0.103603,0.060307,1.373451,0.001300,  50.078
   482.8,0.103611,0.060328,1.372211,0.001314,  50.078
   483.0,0.103622,0.060345,1.371358,0.001303,  50.074
   483.2,0.103634,0.060361,1.369673,0.001327,  50.073
   483.4,0.103630,0.060366,1.368398,0.001327,  50.072
   483.6,0.103634,0.060380,1.367134,0.001303,  50.070
   483.8,0.103622,0.060380,1.365079,0.001327,  50.075
   484.0,0.103588,0.060382,1.363033,0.001314,  50.072
   484.2,0.103564,0.060380,1.361815,0.001249,  50.071
   484.4,0.103525,0.060358,1.360615,0.001247,  50.071
   484.6,0.103463,0.060326,1.359024,0.001220,  50.071
   484.8,0.103409,0.060291,1.357825,0.001129,  50.066
   485.0,0.103370,0.060266,1.357022,0.001126,  50.066
   485.2,0.103332,0.060239,1.355413,0.001126,  50.058
   485.4,0.103312,0.060223,1.354224,0.001089,  50.058
   485.6,0.103297,0.060226,1.353053,0.001139,  50.051
   485.8,0.103304,0.060237,1.351498,0.001180,  50.051
   486.0,0.103324,0.060261,1.350319,0.001169,  50.042
   486.2,0.103324,0.060272,1.349136,0.001233,  50.026
   486.4,0.103309,0.060293,1.347957,0.001273,  50.028
   486.6,0.103297,0.060310,1.346366,0.001263,  50.024
   486.8,0.103285,0.060304,1.344765,0.001314,  50.021
   487.0,0.103239,0.060291,1.342759,0.001340,  50.019
   487.2,0.103196,0.060277,1.340429,0.001316,  50.018
   487.4,0.103126,0.060261,1.338142,0.001354,  50.012
   487.6,0.103049,0.060223,1.335127,0.001367,  50.011
   487.8,0.102983,0.060191,1.332474,0.001330,  50.007
   488.0,0.102890,0.060153,1.329837,0.001354,  50.010
   488.2,0.102797,0.060099,1.326475,0.001367,  50.006
   488.4,0.102711,0.060050,1.324223,0.001316,  50.002
   488.6,0.102614,0.060010,1.321975,0.001340,  49.996
   488.8,0.102530,0.059969,1.319745,0.001340,  49.994
   489.0,0.102460,0.059940,1.318268,0.001340,  49.993
   489.2,0.102390,0.059902,1.316795,0.001289,  49.994
   489.4,0.102301,0.059859,1.314987,0.001314,  49.994
   489.6,0.102216,0.059816,1.313525,0.001276,  49.988
   489.8,0.102127,0.059767,1.312069,0.001249,  49.978
   490.0,0.102031,0.059721,1.311339,0.001260,  49.974
   490.2,0.101938,0.059670,1.309889,0.001273,  49.976
   490.4,0.101848,0.059614,1.308086,0.001236,  49.972
   490.6,0.101733,0.059565,1.305585,0.001287,  49.969
   490.8,0.101620,0.059514,1.302752,0.001300,  49.961
   491.0,0.101493,0.059452,1.300281,0.001289,  49.959
   491.2,0.101358,0.059379,1.297133,0.001327,  49.959
   491.4,0.101226,0.059312,1.293676,0.001340,  49.955
   491.6,0.101084,0.059236,1.290576,0.001303,  49.956
   491.8,0.100926,0.059158,1.286814,0.001340,  49.955
   492.0,0.100771,0.059080,1.283101,0.001340,  49.952
   492.2,0.100601,0.059010,1.279732,0.001289,  49.951
   492.4,0.100436,0.058935,1.276048,0.001314,  49.957
   492.6,0.100278,0.058865,1.272395,0.001287,  49.961
   492.8,0.100112,0.058800,1.269427,0.001223,  49.959
   493.0,0.099951,0.058711,1.266487,0.001206,  49.957
   493.2,0.099804,0.058612,1.264214,0.001180,  49.955
   493.4,0.099650,0.058515,1.261631,0.001115,  49.952
   493.6,0.099501,0.058429,1.259063,0.001113,  49.946
   493.8,0.099374,0.058348,1.256510,0.001113,  49.938
   494.0,0.099239,0.058276,1.253980,0.001126,  49.935
   494.2,0.099101,0.058211,1.251158,0.001177,  49.930
   494.4,0.098982,0.058149,1.248050,0.001217,  49.929
   494.6,0.098855,0.058093,1.245553,0.001231,  49.927
   494.8,0.098702,0.058028,1.242755,0.001257,  49.920
   495.0,0.098559,0.057958,1.240281,0.001284,  49.905
   495.2,0.098398,0.057891,1.237219,0.001298,  49.903
   495.4,0.098253,0.057811,1.233590,0.001311,  49.900
   495.6,0.098107,0.057714,1.229991,0.001324,  49.897
   495.8,0.097969,0.057617,1.226398,0.001338,  49.906
   496.0,0.097846,0.057515,1.222541,0.001338,  49.903
   496.2,0.097648,0.057403,1.218426,0.001351,  49.903
   496.4,0.097444,0.057293,1.214106,0.001351,  49.909
   496.6,0.097215,0.057180,1.209567,0.001324,  49.906
   496.8,0.097005,0.057062,1.204261,0.001311,  49.904
   497.0,0.096806,0.056944,1.199051,0.001311,  49.904
   497.2,0.096596,0.056837,1.193394,0.001311,  49.909
   497.4,0.096401,0.056727,1.187565,0.001298,  49.907
   497.6,0.096225,0.056620,1.184839,0.001260,  49.915
   497.8,0.096050,0.056511,1.183141,0.001260,  49.917
   498.0,0.095867,0.056414,1.182704,0.001260,  49.916
   498.2,0.095695,0.056318,1.180776,0.001209,  49.918
   498.4,0.095516,0.056213,1.178614,0.001206,  49.918
   498.6,0.095318,0.056106,1.175685,0.001206,  49.912
   498.8,0.095128,0.056013,1.172767,0.001220,  49.914
   499.0,0.094918,0.055906,1.169608,0.001182,  49.914
   499.2,0.094694,0.055783,1.165955,0.001233,  49.909
   499.4,0.094462,0.055655,1.163101,0.001196,  49.919
   499.6,0.094227,0.055529,1.160273,0.001209,  49.919
   499.8,0.093984,0.055398,1.157202,0.001247,  49.914
   500.0,0.093745,0.055257,1.154412,0.001260,  49.921
   500.2,0.093498,0.055110,1.150407,0.001223,  49.925
   500.4,0.093236,0.054968,1.145729,0.001260,  49.944
   500.6,0.092990,0.054824,1.140371,0.001273,  49.955
   500.8,0.092721,0.054686,1.136237,0.001209,  49.959
   501.0,0.092472,0.054544,1.131887,0.001220,  49.969
   501.2,0.092248,0.054408,1.128037,0.001206,  49.973
   501.4,0.092025,0.054302,1.124071,0.001129,  49.973
   501.6,0.091806,0.054201,1.120180,0.001113,  49.973
   501.8,0.091606,0.054124,1.116133,0.001099,  49.972
   502.0,0.091413,0.054046,1.112702,0.001048,  49.970
   502.2,0.091195,0.053929,1.109478,0.001072,  49.966
   502.4,0.090976,0.053817,1.106713,0.001086,  49.967
   502.6,0.090754,0.053690,1.103540,0.001048,  49.968
   502.8,0.090531,0.053570,1.099953,0.001099,  49.964
   503.0,0.090313,0.053453,1.096396,0.001113,  49.971
   503.2,0.090110,0.053336,1.093093,0.001089,  49.978
   503.4,0.089880,0.053217,1.089404,0.001139,  49.979
   503.6,0.089643,0.053094,1.085532,0.001166,  49.987
   503.8,0.089410,0.052975,1.081679,0.001142,  49.993
   504.0,0.089155,0.052839,1.077439,0.001193,  49.996
   504.2,0.088907,0.052699,1.073030,0.001206,  49.999
   504.4,0.088644,0.052553,1.068659,0.001182,  50.005
   504.6,0.088363,0.052402,1.063929,0.001206,  50.012
   504.8,0.088094,0.052246,1.059250,0.001206,  50.021
   505.0,0.087802,0.052087,1.054806,0.001156,  50.027
   505.2,0.087566,0.051933,1.050612,0.001166,  50.026
   505.4,0.087353,0.051782,1.046261,0.001166,  50.029
   505.6,0.087158,0.051637,1.042342,0.001129,  50.037
   505.8,0.086998,0.051494,1.038650,0.001166,  50.039
   506.0,0.086766,0.051361,1.034997,0.001166,  50.044
   506.2,0.086538,0.051237,1.031564,0.001129,  50.048
   506.4,0.086292,0.051097,1.028345,0.001166,  50.055
   506.6,0.086057,0.050967,1.024785,0.001153,  50.075
   506.8,0.085841,0.050840,1.021261,0.001102,  50.077
   507.0,0.085621,0.050703,1.017781,0.001126,  50.073
   507.2,0.085372,0.050563,1.013972,0.001126,  50.078
   507.4,0.085122,0.050428,1.009844,0.001089,  50.082
   507.6,0.084858,0.050285,1.005229,0.001139,  50.088
   507.8,0.084591,0.050130,1.000317,0.001139,  50.085
   508.0,0.084309,0.049979,0.995939,0.001153,  50.093
   508.2,0.084030,0.049824,0.991416,0.001115,  50.093
   508.4,0.083745,0.049660,0.986925,0.001166,  50.100
   508.6,0.083444,0.049502,0.983002,0.001142,  50.108
   508.8,0.083152,0.049334,0.979427,0.001129,  50.109
   509.0,0.082859,0.049163,0.975897,0.001166,  50.116
   509.2,0.082556,0.048986,0.972717,0.001153,  50.128
   509.4,0.082264,0.048826,0.968756,0.001102,  50.132
   509.6,0.081998,0.048668,0.964350,0.001113,  50.135
   509.8,0.081732,0.048521,0.960004,0.001086,  50.143
   510.0,0.081500,0.048385,0.956641,0.001008,  50.144
   510.2,0.081264,0.048246,0.953297,0.001006,  50.145
   510.4,0.081028,0.048125,0.950458,0.001006,  50.146
   510.6,0.080818,0.047983,0.946708,0.000955,  50.143
   510.8,0.080560,0.047842,0.942843,0.000992,  50.146
   511.0,0.080302,0.047692,0.938417,0.001006,  50.147
   511.2,0.080030,0.047574,0.934451,0.000981,  50.148
   511.4,0.079780,0.047466,0.930506,0.001032,  50.157
   511.6,0.079534,0.047367,0.926596,0.001046,  50.158
   511.8,0.079296,0.047285,0.922736,0.001035,  50.161
   512.0,0.079039,0.047157,0.918625,0.001086,  50.169
   512.2,0.078771,0.047018,0.914720,0.001113,  50.172
   512.4,0.078515,0.046866,0.910692,0.001089,  50.177
   512.6,0.078236,0.046719,0.906275,0.001113,  50.179
   512.8,0.077955,0.046564,0.901769,0.001126,  50.187
   513.0,0.077669,0.046405,0.897418,0.001089,  50.196
   513.2,0.077377,0.046237,0.892843,0.001126,  50.218
   513.4,0.077077,0.046067,0.888155,0.001139,  50.226
   513.6,0.076778,0.045890,0.883810,0.001089,  50.226
   513.8,0.076494,0.045720,0.879122,0.001113,  50.229
   514.0,0.076209,0.045558,0.874633,0.001126,  50.232
   514.2,0.075925,0.045399,0.870936,0.001089,  50.235
   514.4,0.075696,0.045245,0.867262,0.001113,  50.243
   514.6,0.075488,0.045104,0.864005,0.001126,  50.245
   514.8,0.075303,0.044966,0.860539,0.001075,  50.252
   515.0,0.075157,0.044820,0.856982,0.001099,  50.257
   515.2,0.074928,0.044685,0.853469,0.001099,  50.264
   515.4,0.074685,0.044541,0.849962,0.001048,  50.262
   515.6,0.074427,0.044393,0.846483,0.001059,  50.265
   515.8,0.074170,0.044247,0.843023,0.001059,  50.268
   516.0,0.073887,0.044102,0.839096,0.001035,  50.266
   516.2,0.073608,0.043943,0.835091,0.001072,  50.272
   516.4,0.073325,0.043777,0.830884,0.001086,  50.277
   516.6,0.073025,0.043614,0.826725,0.001048,  50.279
   516.8,0.072732,0.043447,0.822136,0.001099,  50.283
   517.0,0.072428,0.043276,0.817380,0.001099,  50.283
   517.2,0.072118,0.043102,0.812774,0.001113,  50.288
   517.4,0.071812,0.042928,0.808210,0.001075,  50.299
   517.6,0.071516,0.042749,0.803348,0.001099,  50.302
   517.8,0.071209,0.042568,0.799577,0.001048,  50.310
   518.0,0.070914,0.042409,0.796075,0.001022,  50.317
   518.2,0.070651,0.042249,0.793281,0.001019,  50.333
   518.4,0.070388,0.042095,0.790521,0.001006,  50.331
   518.6,0.070148,0.041953,0.787586,0.000928,  50.331
   518.8,0.069903,0.041813,0.784755,0.000925,  50.338
   519.0,0.069652,0.041676,0.782026,0.000925,  50.334
   519.2,0.069419,0.041529,0.778505,0.000888,  50.334
   519.4,0.069157,0.041371,0.774712,0.000925,  50.338
   519.6,0.068877,0.041216,0.770440,0.000925,  50.343
   519.8,0.068605,0.041089,0.766781,0.000915,  50.344
   520.0,0.068347,0.040973,0.763152,0.000965,  50.350
   520.2,0.068082,0.040873,0.759544,0.000979,  50.352
   520.4,0.067840,0.040784,0.755889,0.000955,  50.359
   520.6,0.067579,0.040644,0.752095,0.001006,  50.365
   520.8,0.067303,0.040497,0.748250,0.001019,  50.367
   521.0,0.067040,0.040344,0.743884,0.000981,  50.375
   521.2,0.066761,0.040187,0.739303,0.001032,  50.378
   521.4,0.066465,0.040027,0.734221,0.001032,  50.386
   521.6,0.066173,0.039862,0.730053,0.000995,  50.393
   521.8,0.065892,0.039694,0.726074,0.001032,  50.395
   522.0,0.065604,0.039524,0.722286,0.001032,  50.399
   522.2,0.065330,0.039357,0.718545,0.000981,  50.403
   522.4,0.065050,0.039187,0.714760,0.001006,  50.408
   522.6,0.064769,0.039019,0.710916,0.001019,  50.411
   522.8,0.064496,0.038868,0.707323,0.000981,  50.418
   523.0,0.064230,0.038719,0.703776,0.001019,  50.426
   523.2,0.063964,0.038567,0.700120,0.001032,  50.428
   523.4,0.063716,0.038431,0.696952,0.000981,  50.431
   523.6,0.063500,0.038288,0.693957,0.000992,  50.435
   523.8,0.063305,0.038138,0.691141,0.000992,  50.438
   524.0,0.063136,0.038000,0.688100,0.000941,  50.436
   524.2,0.062987,0.037854,0.685080,0.000952,  50.439
   524.4,0.062736,0.037698,0.681918,0.000952,  50.442
   524.6,0.062468,0.037547,0.678443,0.000928,  50.443
   524.8,0.062168,0.037386,0.674745,0.000965,  50.448
   525.0,0.061889,0.037229,0.670838,0.000979,  50.451
   525.2,0.061600,0.037070,0.666891,0.000941,  50.466
   525.4,0.061315,0.036904,0.662752,0.000979,  50.471
   525.6,0.061019,0.036732,0.658572,0.000979,  50.478
   525.8,0.060717,0.036564,0.654504,0.000928,  50.478
   526.0,0.060422,0.036398,0.650474,0.000952,  50.483
   526.2,0.060137,0.036221,0.646411,0.000939,  50.484
   526.4,0.059856,0.036052,0.643206,0.000925,  50.490
   526.6,0.059597,0.035899,0.640325,0.000861,  50.490
   526.8,0.059355,0.035749,0.637685,0.000872,  50.491
   527.0,0.059116,0.035609,0.635159,0.000821,  50.488
   527.2,0.058903,0.035468,0.632943,0.000794,  50.489
   527.4,0.058668,0.035333,0.630911,0.000818,  50.489
   527.6,0.058416,0.035196,0.629039,0.000818,  50.485
   527.8,0.058171,0.035050,0.625884,0.000794,  50.486
   528.0,0.057920,0.034905,0.622316,0.000818,  50.483
   528.2,0.057654,0.034752,0.618330,0.000832,  50.484
   528.4,0.057393,0.034615,0.614888,0.000807,  50.487
   528.6,0.057145,0.034474,0.611344,0.000858,  50.485
   528.8,0.056890,0.034337,0.607900,0.000872,  50.488
   529.0,0.056653,0.034220,0.604561,0.000848,  50.490
   529.2,0.056406,0.034105,0.601053,0.000912,  50.490
   529.4,0.056148,0.034003,0.597651,0.000925,  50.491
   529.6,0.055898,0.033915,0.594244,0.000901,  50.495
   529.8,0.055630,0.033770,0.590727,0.000939,  50.495
   530.0,0.055359,0.033610,0.587163,0.000952,  50.504
   530.2,0.055082,0.033446,0.583694,0.000915,  50.504
   530.4,0.054815,0.033293,0.580186,0.000925,  50.501
   530.6,0.054540,0.033133,0.576648,0.000925,  50.505
   530.8,0.054277,0.032983,0.573320,0.000888,  50.495
   531.0,0.054024,0.032833,0.570018,0.000925,  50.505
   531.2,0.053771,0.032681,0.566820,0.000925,  50.505
   531.4,0.053533,0.032534,0.563605,0.000888,  50.506
   531.6,0.053287,0.032394,0.560372,0.000925,  50.516
   531.8,0.053035,0.032253,0.557187,0.000912,  50.514
   532.0,0.052797,0.032119,0.554392,0.000874,  50.519
   532.2,0.052593,0.031977,0.551731,0.000898,  50.524
   532.4,0.052403,0.031835,0.549189,0.000898,  50.522
   532.6,0.052251,0.031694,0.546498,0.000834,  50.519
   532.8,0.052110,0.031550,0.543662,0.000858,  50.525
   533.0,0.051872,0.031406,0.540721,0.000872,  50.524
   533.2,0.051624,0.031260,0.537671,0.000821,  50.527
   533.4,0.051342,0.031108,0.534349,0.000858,  50.532
   533.6,0.051084,0.030958,0.530872,0.000872,  50.528
   533.8,0.050812,0.030802,0.527467,0.000834,  50.530
   534.0,0.050548,0.030640,0.523970,0.000872,  50.534
   534.2,0.050276,0.030484,0.520443,0.000872,  50.537
   534.4,0.049998,0.030322,0.517118,0.000821,  50.542
   534.6,0.049721,0.030168,0.513941,0.000832,  50.544
   534.8,0.049467,0.030014,0.510787,0.000805,  50.546
   535.0,0.049216,0.029865,0.508209,0.000791,  50.553
   535.2,0.048988,0.029729,0.505878,0.000727,  50.551
   535.4,0.048772,0.029596,0.503729,0.000724,  50.551
   535.6,0.048559,0.029467,0.501542,0.000674,  50.550
   535.8,0.048372,0.029337,0.499525,0.000660,  50.545
   536.0,0.048153,0.029202,0.497533,0.000698,  50.551
   536.2,0.047914,0.029067,0.495660,0.000698,  50.544
   536.4,0.047679,0.028934,0.492902,0.000674,  50.546
   536.6,0.047443,0.028800,0.489780,0.000711,  50.550
   536.8,0.047197,0.028664,0.486472,0.000724,  50.543
   537.0,0.046963,0.028534,0.483273,0.000700,  50.551
   537.2,0.046734,0.028406,0.479900,0.000751,  50.550
   537.4,0.046499,0.028281,0.476411,0.000765,  50.552
   537.6,0.046285,0.028171,0.473623,0.000740,  50.557
   537.8,0.046061,0.028065,0.470978,0.000791,  50.558
   538.0,0.045826,0.027969,0.468541,0.000805,  50.558
   538.2,0.045599,0.027886,0.465787,0.000781,  50.560
   538.4,0.045361,0.027756,0.462904,0.000818,  50.560
   538.6,0.045109,0.027615,0.459954,0.000832,  50.564
   538.8,0.044862,0.027463,0.457152,0.000794,  50.568
   539.0,0.044611,0.027322,0.454368,0.000767,  50.563
   539.2,0.044370,0.027172,0.451659,0.000754,  50.563
   539.4,0.044127,0.027030,0.448967,0.000754,  50.562
   539.6,0.043893,0.026895,0.446340,0.000791,  50.567
   539.8,0.043687,0.026759,0.443704,0.000791,  50.565
   540.0,0.043477,0.026637,0.440699,0.000754,  50.565
   540.2,0.043250,0.026510,0.437498,0.000805,  50.565
   540.4,0.043035,0.026377,0.434081,0.000805,  50.572
   540.6,0.042812,0.026257,0.431655,0.000767,  50.567
   540.8,0.042630,0.026133,0.429583,0.000778,  50.578
   541.0,0.042457,0.025995,0.427859,0.000778,  50.576
   541.2,0.042320,0.025871,0.425710,0.000727,  50.572
   541.4,0.042202,0.025744,0.423431,0.000751,  50.570
   541.6,0.041986,0.025607,0.421140,0.000765,  50.567
   541.8,0.041764,0.025473,0.418669,0.000727,  50.565
   542.0,0.041508,0.025340,0.415974,0.000765,  50.565
   542.2,0.041265,0.025201,0.413220,0.000778,  50.567
   542.4,0.041037,0.025058,0.410437,0.000727,  50.572
   542.6,0.040795,0.024915,0.407500,0.000765,  50.569
   542.8,0.040553,0.024771,0.404501,0.000765,  50.573
   543.0,0.040319,0.024632,0.402017,0.000700,  50.575
   543.2,0.040074,0.024498,0.399731,0.000711,  50.581
   543.4,0.039845,0.024361,0.397626,0.000684,  50.601
   543.6,0.039641,0.024229,0.395598,0.000658,  50.607
   543.8,0.039437,0.024110,0.393717,0.000631,  50.599
   544.0,0.039236,0.023996,0.391990,0.000628,  50.597
   544.2,0.039059,0.023889,0.390169,0.000591,  50.590
   544.4,0.038882,0.023770,0.388327,0.000628,  50.592
   544.6,0.038681,0.023643,0.386478,0.000642,  50.592
   544.8,0.038474,0.023514,0.384652,0.000655,  50.596
   545.0,0.038264,0.023393,0.382300,0.000668,  50.596
   545.2,0.038057,0.023266,0.379750,0.000668,  50.592
   545.4,0.037840,0.023144,0.376996,0.000682,  50.594
   545.6,0.037630,0.023028,0.374458,0.000695,  50.597
   545.8,0.037419,0.022912,0.371867,0.000708,  50.592
   546.0,0.037223,0.022797,0.369258,0.000722,  50.594
   546.2,0.037030,0.022695,0.366914,0.000735,  50.595
   546.4,0.036823,0.022609,0.364623,0.000735,  50.600
   546.6,0.036627,0.022519,0.362409,0.000749,  50.598
   546.8,0.036424,0.022447,0.360159,0.000762,  50.602
   547.0,0.036211,0.022331,0.357873,0.000749,  50.607
   547.2,0.036012,0.022209,0.355598,0.000749,  50.607
   547.4,0.035799,0.022073,0.353246,0.000749,  50.603
   547.6,0.035583,0.021949,0.350795,0.000735,  50.608
   547.8,0.035388,0.021821,0.348358,0.000735,  50.604
   548.0,0.035179,0.021698,0.346241,0.000749,  50.603
   548.2,0.034979,0.021588,0.344282,0.000735,  50.608
   548.4,0.034801,0.021484,0.342401,0.000735,  50.604
   548.6,0.034622,0.021384,0.340359,0.000749,  50.611
   548.8,0.034434,0.021270,0.338265,0.000735,  50.611
   549.0,0.034238,0.021153,0.336104,0.000722,  50.614
   549.2,0.034047,0.021037,0.334130,0.000684,  50.616
   549.4,0.033865,0.020923,0.332232,0.000671,  50.615
   549.6,0.033683,0.020807,0.330335,0.000658,  50.615
   549.8,0.033515,0.020697,0.328401,0.000631,  50.613
   550.0,0.033353,0.020578,0.326520,0.000655,  50.609
   550.2,0.033197,0.020465,0.324603,0.000668,  50.609
   550.4,0.033049,0.020354,0.322434,0.000668,  50.608
   550.6,0.032914,0.020236,0.320189,0.000668,  50.610
   550.8,0.032718,0.020113,0.317809,0.000682,  50.613
   551.0,0.032518,0.019988,0.315564,0.000682,  50.617
   551.2,0.032297,0.019859,0.313295,0.000682,  50.623
   551.4,0.032089,0.019739,0.311001,0.000682,  50.631
   551.6,0.031899,0.019617,0.309086,0.000655,  50.631
   551.8,0.031701,0.019496,0.307314,0.000628,  50.636
   552.0,0.031510,0.019382,0.305680,0.000615,  50.642
   552.2,0.031340,0.019269,0.304079,0.000575,  50.644
   552.4,0.031166,0.019165,0.302492,0.000535,  50.636
   552.6,0.030994,0.019062,0.301024,0.000521,  50.632
   552.8,0.030841,0.018971,0.299168,0.000484,  50.628
   553.0,0.030686,0.018867,0.297109,0.000521,  50.627
   553.2,0.030508,0.018756,0.294895,0.000535,  50.626
   553.4,0.030345,0.018653,0.292976,0.000510,  50.629
   553.6,0.030165,0.018553,0.291108,0.000548,  50.630
   553.8,0.029988,0.018450,0.289325,0.000575,  50.632
   554.0,0.029814,0.018344,0.287598,0.000601,  50.634
   554.2,0.029642,0.018244,0.285757,0.000615,  50.634
   554.4,0.029475,0.018149,0.283875,0.000628,  50.636
   554.6,0.029304,0.018051,0.282026,0.000655,  50.637
   554.8,0.029148,0.017958,0.280312,0.000655,  50.639
   555.0,0.028981,0.017857,0.278664,0.000655,  50.640
   555.2,0.028803,0.017759,0.277021,0.000668,  50.644
   555.4,0.028634,0.017676,0.275242,0.000655,  50.648
   555.6,0.028465,0.017594,0.273419,0.000655,  50.652
   555.8,0.028291,0.017523,0.271487,0.000668,  50.649
   556.0,0.028125,0.017457,0.269730,0.000655,  50.650
   556.2,0.027959,0.017356,0.268012,0.000655,  50.650
   556.4,0.027782,0.017257,0.266301,0.000655,  50.652
   556.6,0.027623,0.017144,0.264612,0.000655,  50.658
   556.8,0.027467,0.017046,0.262985,0.000642,  50.657
   557.0,0.027300,0.016951,0.261340,0.000655,  50.664
   557.2,0.027154,0.016861,0.259646,0.000655,  50.665
   557.4,0.026995,0.016766,0.257966,0.000655,  50.667
   557.6,0.026815,0.016663,0.256254,0.000655,  50.674
   557.8,0.026650,0.016565,0.254730,0.000604,  50.680
   558.0,0.026497,0.016464,0.253268,0.000577,  50.676
   558.2,0.026340,0.016372,0.251841,0.000564,  50.675
   558.4,0.026202,0.016279,0.250381,0.000526,  50.678
   558.6,0.026042,0.016179,0.248893,0.000551,  50.674
   558.8,0.025873,0.016082,0.247435,0.000551,  50.683
   559.0,0.025705,0.015985,0.245748,0.000513,  50.679
   559.2,0.025559,0.015881,0.243951,0.000564,  50.684
   559.4,0.025422,0.015773,0.242016,0.000564,  50.686
   559.6,0.025303,0.015673,0.240273,0.000526,  50.691
   559.8,0.025189,0.015574,0.238468,0.000551,  50.692
   560.0,0.025030,0.015471,0.236702,0.000524,  50.692
   560.2,0.024872,0.015378,0.235283,0.000460,  50.694
   560.4,0.024697,0.015286,0.233982,0.000470,  50.697
   560.6,0.024548,0.015187,0.232806,0.000457,  50.699
   560.8,0.024399,0.015088,0.231504,0.000406,  50.696
   561.0,0.024267,0.015006,0.230223,0.000417,  50.691
   561.2,0.024131,0.014920,0.228915,0.000417,  50.687
   561.4,0.023985,0.014837,0.227417,0.000417,  50.686
   561.6,0.023853,0.014749,0.225761,0.000468,  50.687
   561.8,0.023710,0.014661,0.224045,0.000481,  50.687
   562.0,0.023568,0.014576,0.222388,0.000494,  50.682
   562.2,0.023423,0.014491,0.220730,0.000508,  50.683
   562.4,0.023274,0.014401,0.219012,0.000508,  50.683
   562.6,0.023142,0.014322,0.217643,0.000484,  50.684
   562.8,0.022997,0.014244,0.216436,0.000535,  50.681
   563.0,0.022851,0.014163,0.215386,0.000548,  50.677
   563.2,0.022726,0.014085,0.214503,0.000561,  50.682
   563.4,0.022591,0.014007,0.213097,0.000575,  50.681
   563.6,0.022448,0.013921,0.211569,0.000575,  50.685
   563.8,0.022317,0.013849,0.209939,0.000588,  50.682
   564.0,0.022176,0.013766,0.208569,0.000575,  50.684
   564.2,0.022030,0.013684,0.207294,0.000561,  50.685
   564.4,0.021899,0.013603,0.206052,0.000575,  50.683
   564.6,0.021758,0.013530,0.204715,0.000561,  50.683
   564.8,0.021619,0.013470,0.203361,0.000561,  50.680
   565.0,0.021497,0.013406,0.201936,0.000575,  50.678
   565.2,0.021369,0.013359,0.199853,0.000575,  50.682
   565.4,0.021233,0.013288,0.197469,0.000575,  50.681
   565.6,0.021115,0.013213,0.194712,0.000588,  50.678
   565.8,0.020987,0.013136,0.193419,0.000588,  50.685
   566.0,0.020852,0.013058,0.192655,0.000588,  50.686
   566.2,0.020714,0.012972,0.192447,0.000588,  50.689
   566.4,0.020580,0.012889,0.191375,0.000537,  50.692
   566.6,0.020455,0.012806,0.190207,0.000510,  50.693
   566.8,0.020326,0.012720,0.188856,0.000510,  50.688
   567.0,0.020212,0.012649,0.187866,0.000473,  50.683
   567.2,0.020084,0.012564,0.187026,0.000484,  50.682
   567.4,0.019942,0.012480,0.186252,0.000497,  50.682
   567.6,0.019808,0.012403,0.185114,0.000460,  50.676
   567.8,0.019674,0.012319,0.183851,0.000497,  50.681
   568.0,0.019529,0.012231,0.182446,0.000497,  50.683
   568.2,0.019393,0.012154,0.181237,0.000460,  50.687
   568.4,0.019251,0.012069,0.180099,0.000484,  50.689
   568.6,0.019120,0.011979,0.179018,0.000470,  50.694
   568.8,0.018983,0.011892,0.178019,0.000406,  50.696
   569.0,0.018874,0.011814,0.177098,0.000390,  50.690
   569.2,0.018774,0.011743,0.176232,0.000377,  50.686
   569.4,0.018705,0.011671,0.175284,0.000326,  50.682
   569.6,0.018648,0.011603,0.174320,0.000350,  50.674
   569.8,0.018539,0.011530,0.173290,0.000363,  50.670
   570.0,0.018431,0.011465,0.172057,0.000339,  50.669
   570.2,0.018313,0.011397,0.170746,0.000403,  50.664
   570.4,0.018205,0.011327,0.169264,0.000417,  50.665
   570.6,0.018083,0.011258,0.167991,0.000379,  50.664
   570.8,0.017975,0.011193,0.166714,0.000430,  50.657
   571.0,0.017864,0.011122,0.165466,0.000444,  50.652
   571.2,0.017742,0.011057,0.164229,0.000457,  50.657
   571.4,0.017631,0.010994,0.162978,0.000457,  50.652
   571.6,0.017520,0.010931,0.161720,0.000494,  50.654
   571.8,0.017407,0.010871,0.160724,0.000484,  50.653
   572.0,0.017313,0.010805,0.159857,0.000521,  50.655
   572.2,0.017202,0.010740,0.159086,0.000508,  50.658
   572.4,0.017083,0.010673,0.158477,0.000508,  50.660
   572.6,0.016979,0.010602,0.157505,0.000470,  50.664
   572.8,0.016871,0.010538,0.156443,0.000470,  50.660
   573.0,0.016752,0.010471,0.155315,0.000470,  50.656
   573.2,0.016645,0.010403,0.154335,0.000446,  50.658
   573.4,0.016544,0.010351,0.153423,0.000484,  50.659
   573.6,0.016438,0.010293,0.152530,0.000497,  50.654
   573.8,0.016347,0.010245,0.151554,0.000460,  50.660
   574.0,0.016245,0.010194,0.150547,0.000497,  50.663
   574.2,0.016139,0.010154,0.149499,0.000510,  50.657
   574.4,0.016039,0.010116,0.148446,0.000460,  50.662
   574.6,0.015931,0.010055,0.147322,0.000497,  50.659
   574.8,0.015813,0.009993,0.146201,0.000497,  50.665
   575.0,0.015706,0.009916,0.145306,0.000446,  50.666
   575.2,0.015604,0.009852,0.144454,0.000457,  50.671
   575.4,0.015496,0.009785,0.143726,0.000444,  50.667
   575.6,0.015405,0.009719,0.142787,0.000444,  50.662
   575.8,0.015300,0.009652,0.141800,0.000454,  50.668
   576.0,0.015185,0.009586,0.140766,0.000454,  50.662
   576.2,0.015075,0.009515,0.139687,0.000417,  50.665
   576.4,0.014965,0.009442,0.138602,0.000430,  50.670
   576.6,0.014847,0.009370,0.137488,0.000430,  50.667
   576.8,0.014740,0.009307,0.136555,0.000379,  50.667
   577.0,0.014625,0.009237,0.135727,0.000390,  50.674
   577.2,0.014514,0.009162,0.134941,0.000377,  50.678
   577.4,0.014401,0.009100,0.134237,0.000313,  50.674
   577.6,0.014315,0.009040,0.133605,0.000310,  50.672
   577.8,0.014238,0.008977,0.132982,0.000297,  50.669
   578.0,0.014175,0.008925,0.132145,0.000259,  50.664
   578.2,0.014135,0.008869,0.131214,0.000310,  50.663
   578.4,0.014049,0.008814,0.130174,0.000323,  50.663
   578.6,0.013965,0.008757,0.128518,0.000299,  50.659
   578.8,0.013874,0.008704,0.126521,0.000350,  50.655
   579.0,0.013782,0.008650,0.124190,0.000377,  50.656
   579.2,0.013696,0.008602,0.123160,0.000339,  50.654
   579.4,0.013605,0.008550,0.122624,0.000377,  50.658
   579.6,0.013509,0.008492,0.122571,0.000390,  50.659
   579.8,0.013431,0.008439,0.121996,0.000353,  50.661
   580.0,0.013340,0.008389,0.121390,0.000403,  50.657
   580.2,0.013251,0.008341,0.120723,0.000403,  50.657
   580.4,0.013173,0.008297,0.120033,0.000417,  50.662
   580.6,0.013091,0.008244,0.119352,0.000379,  50.660
   580.8,0.013006,0.008199,0.118580,0.000417,  50.661
   581.0,0.012921,0.008144,0.117870,0.000393,  50.657
   581.2,0.012840,0.008088,0.117169,0.000379,  50.661
   581.4,0.012752,0.008046,0.116408,0.000417,  50.661
   581.6,0.012659,0.007993,0.115687,0.000430,  50.657
   581.8,0.012582,0.007942,0.115051,0.000393,  50.656
   582.0,0.012506,0.007899,0.114439,0.000430,  50.655
   582.2,0.012420,0.007854,0.113858,0.000430,  50.657
   582.4,0.012352,0.007804,0.113210,0.000393,  50.657
   582.6,0.012277,0.007759,0.112509,0.000430,  50.654
   582.8,0.012187,0.007716,0.111763,0.000430,  50.653
   583.0,0.012110,0.007678,0.111042,0.000393,  50.655
   583.2,0.012025,0.007637,0.110344,0.000430,  50.657
   583.4,0.011930,0.007596,0.109625,0.000430,  50.661
   583.6,0.011840,0.007556,0.108885,0.000379,  50.657
   583.8,0.011758,0.007503,0.108153,0.000390,  50.654
   584.0,0.011672,0.007453,0.107424,0.000403,  50.655
   584.2,0.011601,0.007394,0.106747,0.000353,  50.652
   584.4,0.011516,0.007339,0.106042,0.000377,  50.650
   584.6,0.011424,0.007290,0.105329,0.000390,  50.643
   584.8,0.011340,0.007235,0.104618,0.000339,  50.647
   585.0,0.011245,0.007180,0.103863,0.000377,  50.648
   585.2,0.011154,0.007130,0.103088,0.000363,  50.651
   585.4,0.011066,0.007078,0.102418,0.000299,  50.654
   585.6,0.010974,0.007023,0.101734,0.000310,  50.658
   585.8,0.010891,0.006958,0.101112,0.000283,  50.656
   586.0,0.010800,0.006892,0.100593,0.000219,  50.650
   586.2,0.010717,0.006845,0.100096,0.000230,  50.645
   586.4,0.010659,0.006799,0.099652,0.000243,  50.641
   586.6,0.010599,0.006756,0.099024,0.000206,  50.642
   586.8,0.010543,0.006718,0.098294,0.000256,  50.637
   587.0,0.010485,0.006680,0.097470,0.000270,  50.628
   587.2,0.010438,0.006647,0.096706,0.000246,  50.628
   587.4,0.010402,0.006609,0.095914,0.000310,  50.631
   587.6,0.010332,0.006563,0.095065,0.000323,  50.628
   587.8,0.010273,0.006528,0.094328,0.000299,  50.631
   588.0,0.010204,0.006492,0.093606,0.000337,  50.627
   588.2,0.010135,0.006443,0.092855,0.000363,  50.629
   588.4,0.010076,0.006410,0.092114,0.000339,  50.622
   588.6,0.010010,0.006371,0.091403,0.000377,  50.624
   588.8,0.009941,0.006335,0.090679,0.000390,  50.624
   589.0,0.009888,0.006302,0.090056,0.000403,  50.626
   589.2,0.009823,0.006263,0.089477,0.000353,  50.625
   589.4,0.009753,0.006228,0.088993,0.000377,  50.620
   589.6,0.009698,0.006189,0.088475,0.000353,  50.621
   589.8,0.009635,0.006151,0.087985,0.000353,  50.619
   590.0,0.009568,0.006112,0.087505,0.000377,  50.615
   590.2,0.009513,0.006077,0.087054,0.000390,  50.615
   590.4,0.009451,0.006044,0.086551,0.000353,  50.611
   590.6,0.009387,0.006007,0.086070,0.000390,  50.614
   590.8,0.009341,0.005979,0.085582,0.000403,  50.612
   591.0,0.009282,0.005948,0.085046,0.000366,  50.612
   591.2,0.009223,0.005919,0.084462,0.000403,  50.612
   591.4,0.009160,0.005886,0.083835,0.000417,  50.613
   591.6,0.009102,0.005855,0.083307,0.000366,  50.613
   591.8,0.009033,0.005824,0.082793,0.000403,  50.612
   592.0,0.008954,0.005785,0.082301,0.000403,  50.613
   592.2,0.008890,0.005757,0.081783,0.000353,  50.613
   592.4,0.008824,0.005716,0.081280,0.000363,  50.607
   592.6,0.008754,0.005675,0.080772,0.000363,  50.608
   592.8,0.008703,0.005633,0.080228,0.000326,  50.603
   593.0,0.008637,0.005590,0.079621,0.000350,  50.599
   593.2,0.008568,0.005542,0.078960,0.000350,  50.600
   593.4,0.008501,0.005503,0.078410,0.000313,  50.599
   593.6,0.008432,0.005460,0.077883,0.000337,  50.601
   593.8,0.008353,0.005407,0.077327,0.000323,  50.601
   594.0,0.008278,0.005370,0.076498,0.000259,  50.598
   594.2,0.008213,0.005327,0.075506,0.000256,  50.600
   594.4,0.008140,0.005271,0.074373,0.000243,  50.598
   594.6,0.008079,0.005223,0.073660,0.000192,  50.591
   594.8,0.008016,0.005185,0.073065,0.000216,  50.590
   595.0,0.007969,0.005157,0.072594,0.000230,  50.589
   595.2,0.007928,0.005135,0.072230,0.000206,  50.587
   595.4,0.007881,0.005109,0.071976,0.000256,  50.577
   595.6,0.007846,0.005082,0.071824,0.000270,  50.564
   595.8,0.007811,0.005060,0.071507,0.000246,  50.557
   596.0,0.007793,0.005031,0.071165,0.000297,  50.557
   596.2,0.007750,0.005007,0.070761,0.000323,  50.560
   596.4,0.007703,0.004978,0.070349,0.000286,  50.557
   596.6,0.007650,0.004949,0.069953,0.000323,  50.554
   596.8,0.007596,0.004926,0.069516,0.000337,  50.560
   597.0,0.007557,0.004903,0.069020,0.000313,  50.550
   597.2,0.007518,0.004877,0.068478,0.000350,  50.550
   597.4,0.007460,0.004851,0.067911,0.000350,  50.553
   597.6,0.007418,0.004822,0.067471,0.000313,  50.555
   597.8,0.007368,0.004796,0.067093,0.000337,  50.553
   598.0,0.007311,0.004770,0.066756,0.000337,  50.550
   598.2,0.007269,0.004737,0.066384,0.000313,  50.549
   598.4,0.007222,0.004710,0.066045,0.000350,  50.545
   598.6,0.007171,0.004681,0.065735,0.000350,  50.543
   598.8,0.007132,0.004655,0.065358,0.000363,  50.543
   599.0,0.007085,0.004629,0.064928,0.000363,  50.536
   599.2,0.007038,0.004598,0.064473,0.000388,  50.536
   599.4,0.006998,0.004573,0.064079,0.000363,  50.534
   599.6,0.006952,0.004549,0.063679,0.000401,  50.534
   599.8,0.006901,0.004517,0.063335,0.000401,  50.532
   600.0,0.006862,0.004494,0.062971,0.000414,  50.533
   600.2,0.006812,0.004465,0.062535,0.000414,  50.534
   600.4,0.006752,0.004426,0.062116,0.000414,  50.532
   600.6,0.006706,0.004396,0.061628,0.000414,  50.536
   600.8,0.006650,0.004358,0.061242,0.000363,  50.531
   601.0,0.006590,0.004324,0.060910,0.000337,  50.533
   601.2,0.006548,0.004293,0.060593,0.000337,  50.526
   601.4,0.006498,0.004259,0.060188,0.000299,  50.524
   601.6,0.006449,0.004233,0.059756,0.000323,  50.523
   601.8,0.006393,0.004204,0.059299,0.000310,  50.523
   602.0,0.006344,0.004188,0.058736,0.000272,  50.524
   602.2,0.006288,0.004155,0.058122,0.000297,  50.524
   602.4,0.006219,0.004117,0.057431,0.000283,  50.524
   602.6,0.006161,0.004074,0.057110,0.000219,  50.528
   602.8,0.006109,0.004033,0.056953,0.000216,  50.522
   603.0,0.006052,0.004000,0.056930,0.000216,  50.514
   603.2,0.006016,0.003967,0.056747,0.000179,  50.513
   603.4,0.005978,0.003938,0.056507,0.000203,  50.510
   603.6,0.005937,0.003922,0.056284,0.000216,  50.507
   603.8,0.005913,0.003906,0.055935,0.000192,  50.505
   604.0,0.005878,0.003882,0.055494,0.000256,  50.500
   604.2,0.005847,0.003867,0.054969,0.000270,  50.502
   604.4,0.005819,0.003853,0.054562,0.000246,  50.502
   604.6,0.005784,0.003829,0.054174,0.000297,  50.502
   604.8,0.005757,0.003813,0.053780,0.000310,  50.503
   605.0,0.005723,0.003795,0.053353,0.000272,  50.499
   605.2,0.005695,0.003772,0.052931,0.000310,  50.498
   605.4,0.005663,0.003757,0.052481,0.000323,  50.495
   605.6,0.005635,0.003741,0.052083,0.000299,  50.497
   605.8,0.005621,0.003716,0.051693,0.000337,  50.491
   606.0,0.005579,0.003703,0.051304,0.000350,  50.496
   606.2,0.005550,0.003681,0.050935,0.000313,  50.492
   606.4,0.005514,0.003655,0.050587,0.000323,  50.492
   606.6,0.005480,0.003639,0.050265,0.000323,  50.493
   606.8,0.005435,0.003617,0.049973,0.000286,  50.486
   607.0,0.005408,0.003593,0.049728,0.000323,  50.490
   607.2,0.005377,0.003576,0.049488,0.000323,  50.488
   607.4,0.005339,0.003560,0.049204,0.000299,  50.483
   607.6,0.005319,0.003540,0.048868,0.000350,  50.482
   607.8,0.005291,0.003521,0.048509,0.000363,  50.482
   608.0,0.005252,0.003510,0.048226,0.000363,  50.481
   608.2,0.005229,0.003489,0.047935,0.000339,  50.477
   608.4,0.005198,0.003471,0.047651,0.000363,  50.478
   608.6,0.005164,0.003457,0.047400,0.000339,  50.480
   608.8,0.005137,0.003435,0.047156,0.000326,  50.475
   609.0,0.005100,0.003409,0.046972,0.000363,  50.478
   609.2,0.005057,0.003390,0.046776,0.000350,  50.478
   609.4,0.005013,0.003371,0.046521,0.000299,  50.473
   609.6,0.004973,0.003336,0.046242,0.000310,  50.475
   609.8,0.004929,0.003310,0.045932,0.000297,  50.474
   610.0,0.004889,0.003281,0.045669,0.000246,  50.471
   610.2,0.004841,0.003255,0.045407,0.000283,  50.471
   610.4,0.004795,0.003224,0.045118,0.000297,  50.469
   610.6,0.004748,0.003190,0.044907,0.000232,  50.470
   610.8,0.004691,0.003167,0.044735,0.000256,  50.472
   611.0,0.004643,0.003133,0.044552,0.000243,  50.469
   611.2,0.004581,0.003110,0.044325,0.000179,  50.468
   611.4,0.004531,0.003087,0.044075,0.000176,  50.466
   611.6,0.004504,0.003062,0.043786,0.000176,  50.461
   611.8,0.004476,0.003026,0.043501,0.000139,  50.456
   612.0,0.004452,0.003007,0.043190,0.000176,  50.456
   612.2,0.004430,0.002987,0.042851,0.000203,  50.454
   612.4,0.004422,0.002983,0.042540,0.000179,  50.453
   612.6,0.004403,0.002969,0.042229,0.000230,  50.448
   612.8,0.004380,0.002963,0.041880,0.000256,  50.445
   613.0,0.004369,0.002959,0.041593,0.000232,  50.441
   613.2,0.004348,0.002952,0.041325,0.000283,  50.427
   613.4,0.004322,0.002937,0.041058,0.000297,  50.422
   613.6,0.004308,0.002929,0.040752,0.000259,  50.424
   613.8,0.004286,0.002922,0.040450,0.000297,  50.422
   614.0,0.004254,0.002908,0.040098,0.000310,  50.425
   614.2,0.004240,0.002899,0.039827,0.000272,  50.425
   614.4,0.004218,0.002885,0.039538,0.000310,  50.422
   614.6,0.004192,0.002871,0.039275,0.000310,  50.426
   614.8,0.004178,0.002852,0.039013,0.000272,  50.420
   615.0,0.004159,0.002837,0.038751,0.000310,  50.415
   615.2,0.004130,0.002823,0.038477,0.000310,  50.414
   615.4,0.004113,0.002809,0.038215,0.000272,  50.413
   615.6,0.004091,0.002802,0.037953,0.000310,  50.415
   615.8,0.004070,0.002790,0.037711,0.000323,  50.409
   616.0,0.004044,0.002781,0.037461,0.000286,  50.405
   616.2,0.004030,0.002771,0.037200,0.000323,  50.401
   616.4,0.004008,0.002759,0.036966,0.000337,  50.405
   616.6,0.003976,0.002748,0.036747,0.000299,  50.404
   616.8,0.003962,0.002733,0.036536,0.000323,  50.403
   617.0,0.003940,0.002722,0.036318,0.000323,  50.392
   617.2,0.003916,0.002709,0.036130,0.000337,  50.395
   617.4,0.003895,0.002695,0.035931,0.000299,  50.392
   617.6,0.003867,0.002673,0.035743,0.000337,  50.396
   617.8,0.003829,0.002654,0.035571,0.000299,  50.390
   618.0,0.003792,0.002632,0.035380,0.000272,  50.392
   618.2,0.003761,0.002603,0.035177,0.000297,  50.392
   618.4,0.003723,0.002580,0.035017,0.000297,  50.385
   618.6,0.003693,0.002559,0.034913,0.000246,  50.385
   618.8,0.003660,0.002532,0.034791,0.000270,  50.389
   619.0,0.003615,0.002511,0.034699,0.000270,  50.387
   619.2,0.003582,0.002483,0.034531,0.000206,  50.387
   619.4,0.003542,0.002447,0.034367,0.000203,  50.385
   619.6,0.003486,0.002405,0.034184,0.000190,  50.384
   619.8,0.003438,0.002381,0.033971,0.000125,  50.383
   620.0,0.003410,0.002360,0.033716,0.000136,  50.372
   620.2,0.003381,0.002346,0.033438,0.000136,  50.371
   620.4,0.003373,0.002337,0.033259,0.000112,  50.366
   620.6,0.003361,0.002332,0.033084,0.000176,  50.365
   620.8,0.003344,0.002329,0.032958,0.000203,  50.357
   621.0,0.003342,0.002328,0.032593,0.000179,  50.357
   621.2,0.003333,0.002323,0.032138,0.000230,  50.355
   621.4,0.003322,0.002326,0.031547,0.000256,  50.358
   621.6,0.003320,0.002324,0.031301,0.000232,  50.357
   621.8,0.003311,0.002319,0.031153,0.000270,  50.358
   622.0,0.003292,0.002312,0.031096,0.000283,  50.353
   622.2,0.003284,0.002308,0.030929,0.000259,  50.357
   622.4,0.003268,0.002298,0.030751,0.000297,  50.353
   622.6,0.003245,0.002289,0.030554,0.000310,  50.359
   622.8,0.003234,0.002279,0.029867,0.000272,  50.361
   623.0,0.003216,0.002268,0.028954,0.000297,  50.360
   623.2,0.003190,0.002253,0.027780,0.000310,  50.363
   623.4,0.003176,0.002245,0.027458,0.000272,  50.357
   623.6,0.003160,0.002235,0.027454,0.000297,  50.357
   623.8,0.003144,0.002223,0.027741,0.000310,  50.357
   624.0,0.003131,0.002213,0.027826,0.000272,  50.357
   624.2,0.003122,0.002206,0.027919,0.000310,  50.353
   624.4,0.003106,0.002199,0.028061,0.000323,  50.355
   624.6,0.003101,0.002194,0.028116,0.000286,  50.355
   624.8,0.003088,0.002187,0.028104,0.000323,  50.353
   625.0,0.003069,0.002180,0.028070,0.000337,  50.348
   625.2,0.003061,0.002173,0.027437,0.000313,  50.348
   625.4,0.003045,0.002164,0.026510,0.000337,  50.349
   625.6,0.003022,0.002159,0.025248,0.000337,  50.350
   625.8,0.003011,0.002150,0.024705,0.000313,  50.346
   626.0,0.002996,0.002138,0.024374,0.000337,  50.340
   626.2,0.002967,0.002125,0.024251,0.000323,  50.347
   626.4,0.002947,0.002102,0.024373,0.000272,  50.348
   626.6,0.002916,0.002085,0.024713,0.000283,  50.348
   626.8,0.002881,0.002063,0.025285,0.000270,  50.345
   627.0,0.002857,0.002046,0.025522,0.000270,  50.344
   627.2,0.002824,0.002020,0.025700,0.000219,  50.343
   627.4,0.002782,0.001991,0.025793,0.000243,  50.344
   627.6,0.002750,0.001969,0.025710,0.000179,  50.346
   627.8,0.002710,0.001944,0.025528,0.000152,  50.350
   628.0,0.002665,0.001908,0.025174,0.000163,  50.342
   628.2,0.002636,0.001876,0.024729,0.000150,  50.344
   628.4,0.002593,0.001857,0.024761,0.000099,  50.339
   628.6,0.002567,0.001849,0.024909,0.000085,  50.336
   628.8,0.002565,0.001846,0.025165,0.000099,  50.331
   629.0,0.002562,0.001843,0.025220,0.000125,  50.331
   629.2,0.002552,0.001843,0.025208,0.000139,  50.330
   629.4,0.002562,0.001853,0.025121,0.000165,  50.330
   629.6,0.002565,0.001857,0.025012,0.000179,  50.329
   629.8,0.002558,0.001854,0.024844,0.000230,  50.332
   630.0,0.002565,0.001861,0.024628,0.000256,  50.332
   630.2,0.002562,0.001864,0.024519,0.000232,  50.329
   630.4,0.002552,0.001861,0.024392,0.000270,  50.332
   630.6,0.002556,0.001861,0.024310,0.000283,  50.328
   630.8,0.002550,0.001864,0.024190,0.000259,  50.328
   631.0,0.002536,0.001861,0.024041,0.000297,  50.323
   631.2,0.002534,0.001859,0.023874,0.000310,  50.329
   631.4,0.002522,0.001852,0.023754,0.000272,  50.327
   631.6,0.002505,0.001847,0.023661,0.000297,  50.326
   631.8,0.002500,0.001838,0.023605,0.000310,  50.324
   632.0,0.002482,0.001831,0.023505,0.000272,  50.321
   632.2,0.002468,0.001829,0.023393,0.000297,  50.321
   632.4,0.002467,0.001821,0.023281,0.000310,  50.325
   632.6,0.002457,0.001817,0.023151,0.000272,  50.320
   632.8,0.002448,0.001811,0.022999,0.000297,  50.321
   633.0,0.002435,0.001811,0.022810,0.000310,  50.321
   633.2,0.002425,0.001803,0.022684,0.000310,  50.321
   633.4,0.002427,0.001799,0.022620,0.000347,  50.320
   633.6,0.002413,0.001792,0.022586,0.000361,  50.323
   633.8,0.002411,0.001788,0.022467,0.000361,  50.320
   634.0,0.002399,0.001778,0.022319,0.000361,  50.312
   634.2,0.002379,0.001766,0.022178,0.000374,  50.322
   634.4,0.002374,0.001764,0.022067,0.000374,  50.316
   634.6,0.002359,0.001749,0.021948,0.000361,  50.320
   634.8,0.002333,0.001737,0.021818,0.000347,  50.321
   635.0,0.002316,0.001728,0.021696,0.000334,  50.318
   635.2,0.002291,0.001711,0.021545,0.000307,  50.322
   635.4,0.002259,0.001688,0.021383,0.000294,  50.321
   635.6,0.002236,0.001662,0.021349,0.000281,  50.314
   635.8,0.002199,0.001637,0.021370,0.000254,  50.318
   636.0,0.002155,0.001605,0.021424,0.000227,  50.318
   636.2,0.002118,0.001580,0.021409,0.000190,  50.321
   636.4,0.002075,0.001549,0.021390,0.000211,  50.323
   636.6,0.002034,0.001516,0.021343,0.000184,  50.318
   636.8,0.002006,0.001494,0.021298,0.000147,  50.316
   637.0,0.001992,0.001485,0.021261,0.000147,  50.316
   637.2,0.001976,0.001479,0.021190,0.000147,  50.310
   637.4,0.001976,0.001491,0.021108,0.000123,  50.309
   637.6,0.001992,0.001498,0.020960,0.000150,  50.309
   637.8,0.001992,0.001505,0.020754,0.000214,  50.306
   638.0,0.001999,0.001515,0.020503,0.000241,  50.311
   638.2,0.002019,0.001522,0.020307,0.000254,  50.307
   638.4,0.002025,0.001524,0.020082,0.000267,  50.305
   638.6,0.002020,0.001526,0.019858,0.000294,  50.305
   638.8,0.002023,0.001529,0.019663,0.000307,  50.308
   639.0,0.002026,0.001529,0.019457,0.000307,  50.307
   639.2,0.002016,0.001529,0.019240,0.000321,  50.304
   639.4,0.002010,0.001532,0.019140,0.000283,  50.310
   639.6,0.002001,0.001524,0.019070,0.000283,  50.306
   639.8,0.001984,0.001525,0.019047,0.000297,  50.305
   640.0,0.001979,0.001522,0.019013,0.000246,  50.305
   640.2,0.001970,0.001515,0.018961,0.000270,  50.305
   640.4,0.001953,0.001507,0.018942,0.000283,  50.307
   640.6,0.001955,0.001497,0.018850,0.000246,  50.302
   640.8,0.001952,0.001492,0.018711,0.000283,  50.299
   641.0,0.001941,0.001493,0.018524,0.000297,  50.286
   641.2,0.001945,0.001491,0.018355,0.000259,  50.281
   641.4,0.001942,0.001494,0.018176,0.000310,  50.282
   641.6,0.001929,0.001492,0.017968,0.000323,  50.281
   641.8,0.001933,0.001491,0.017847,0.000286,  50.278
   642.0,0.001930,0.001495,0.017737,0.000323,  50.277
   642.2,0.001917,0.001491,0.017656,0.000337,  50.279
   642.4,0.001918,0.001490,0.017593,0.000313,  50.275
   642.6,0.001912,0.001482,0.017541,0.000337,  50.276
   642.8,0.001901,0.001469,0.017489,0.000337,  50.278
   643.0,0.001896,0.001468,0.017455,0.000299,  50.271
   643.2,0.001890,0.001459,0.017403,0.000323,  50.275
   643.4,0.001867,0.001446,0.017340,0.000310,  50.273
   643.6,0.001856,0.001438,0.016776,0.000283,  50.270
   643.8,0.001835,0.001417,0.015929,0.000294,  50.278
   644.0,0.001810,0.001400,0.014855,0.000267,  50.273
   644.2,0.001772,0.001381,0.014829,0.000241,  50.275
   644.4,0.001743,0.001352,0.015205,0.000214,  50.276
   644.6,0.001706,0.001319,0.015969,0.000200,  50.270
   644.8,0.001659,0.001279,0.016178,0.000123,  50.274
   645.0,0.001620,0.001257,0.016328,0.000083,  50.268
   645.2,0.001595,0.001239,0.016401,0.000069,  50.270
   645.4,0.001573,0.001224,0.016422,0.000045,  50.265
   645.6,0.001571,0.001221,0.016396,0.000045,  50.261
   645.8,0.001571,0.001221,0.016323,0.000109,  50.259
   646.0,0.001573,0.001229,0.016279,0.000085,  50.256
   646.2,0.001592,0.001233,0.016208,0.000112,  50.255
   646.4,0.001602,0.001237,0.016164,0.000176,  50.255
   646.6,0.001606,0.001254,0.016073,0.000203,  50.257
   646.8,0.001626,0.001262,0.015992,0.000179,  50.250
   647.0,0.001635,0.001269,0.015911,0.000230,  50.247
   647.2,0.001637,0.001284,0.015812,0.000256,  50.252
   647.4,0.001645,0.001294,0.015723,0.000232,  50.249
   647.6,0.001648,0.001287,0.015661,0.000270,  50.255
   647.8,0.001640,0.001290,0.015598,0.000283,  50.252
   648.0,0.001645,0.001284,0.015525,0.000246,  50.250
   648.2,0.001641,0.001279,0.015387,0.000283,  50.254
   648.4,0.001629,0.001282,0.015245,0.000297,  50.255
   648.6,0.001621,0.001277,0.015201,0.000246,  50.255
   648.8,0.001618,0.001267,0.015175,0.000270,  50.253
   649.0,0.001615,0.001268,0.015178,0.000283,  50.252
   649.2,0.001612,0.001269,0.015087,0.000246,  50.253
   649.4,0.001612,0.001266,0.014956,0.000283,  50.254
   649.6,0.001615,0.001264,0.014787,0.000297,  50.253
   649.8,0.001612,0.001272,0.014742,0.000259,  50.257
   650.0,0.001612,0.001272,0.014745,0.000297,  50.253
   650.2,0.001612,0.001272,0.014769,0.000323,  50.254
   650.4,0.001606,0.001276,0.014735,0.000286,  50.248
   650.6,0.001603,0.001276,0.014673,0.000323,  50.258
   650.8,0.001603,0.001275,0.014600,0.000337,  50.253
   651.0,0.001600,0.001275,0.014519,0.000299,  50.254
   651.2,0.001597,0.001272,0.014436,0.000323,  50.256
   651.4,0.001594,0.001270,0.014334,0.000323,  50.253
   651.6,0.001577,0.001268,0.014254,0.000286,  50.253
   651.8,0.001578,0.001269,0.014189,0.000323,  50.256
   652.0,0.001559,0.001260,0.014098,0.000310,  50.258
   652.2,0.001537,0.001248,0.014079,0.000246,  50.258
   652.4,0.001513,0.001234,0.014079,0.000256,  50.255
   652.6,0.001482,0.001207,0.014105,0.000230,  50.256
   652.8,0.001441,0.001170,0.014095,0.000152,  50.257
   653.0,0.001405,0.001134,0.014048,0.000150,  50.255
   653.2,0.001365,0.001101,0.013980,0.000123,  50.252
   653.4,0.001318,0.001063,0.014019,0.000059,  50.255
   653.6,0.001283,0.001044,0.014077,0.000069,  50.250
   653.8,0.001267,0.001035,0.014163,0.000069,  50.241
   654.0,0.001254,0.001029,0.014119,0.000069,  50.230
   654.2,0.001270,0.001031,0.013991,0.000059,  50.230
   654.4,0.001279,0.001035,0.013814,0.000123,  50.229
   654.6,0.001284,0.001054,0.013684,0.000125,  50.222
   654.8,0.001307,0.001066,0.013546,0.000139,  50.228
   655.0,0.001319,0.001072,0.013387,0.000190,  50.229
   655.2,0.001324,0.001089,0.013229,0.000216,  50.226
   655.4,0.001344,0.001099,0.013081,0.000192,  50.223
   655.6,0.001353,0.001103,0.012925,0.000256,  50.222
   655.8,0.001355,0.001113,0.012751,0.000283,  50.220
   656.0,0.001368,0.001112,0.012614,0.000246,  50.223
   656.2,0.001375,0.001117,0.012513,0.000270,  50.219
   656.4,0.001364,0.001122,0.012440,0.000283,  50.220
   656.6,0.001365,0.001119,0.012396,0.000246,  50.218
   656.8,0.001365,0.001120,0.012360,0.000270,  50.219
   657.0,0.001356,0.001113,0.012352,0.000283,  50.214
   657.2,0.001354,0.001115,0.012344,0.000283,  50.211
   657.4,0.001354,0.001118,0.012311,0.000307,  50.209
   657.6,0.001347,0.001113,0.012285,0.000321,  50.208
   657.8,0.001347,0.001115,0.012241,0.000321,  50.208
   658.0,0.001347,0.001120,0.012179,0.000321,  50.203
   658.2,0.001343,0.001125,0.012122,0.000334,  50.202
   658.4,0.001350,0.001127,0.012049,0.000334,  50.200
   658.6,0.001350,0.001132,0.011977,0.000334,  50.200
   658.8,0.001343,0.001126,0.011912,0.000347,  50.197
   659.0,0.001347,0.001122,0.011811,0.000347,  50.194
   659.2,0.001344,0.001123,0.011710,0.000347,  50.200
   659.4,0.001336,0.001122,0.011609,0.000361,  50.196
   659.6,0.001341,0.001128,0.011537,0.000361,  50.194
   659.8,0.001338,0.001128,0.011483,0.000361,  50.196
   660.0,0.001327,0.001129,0.011439,0.000361,  50.194
   660.2,0.001328,0.001125,0.011434,0.000361,  50.197
   660.4,0.001319,0.001121,0.011465,0.000347,  50.198
   660.6,0.001300,0.001109,0.011532,0.000321,  50.200
   660.8,0.001286,0.001092,0.011551,0.000294,  50.203
   661.0,0.001264,0.001068,0.011522,0.000254,  50.203
   661.2,0.001230,0.001029,0.011483,0.000227,  50.207
   661.4,0.001198,0.000991,0.011519,0.000200,  50.203
   661.6,0.001146,0.000951,0.011581,0.000134,  50.210
   661.8,0.001109,0.000921,0.011628,0.000107,  50.205
   662.0,0.001065,0.000893,0.011359,0.000056,  50.195
   662.2,0.001034,0.000877,0.010940,0.000043,  50.197
   662.4,0.001025,0.000875,0.010328,0.000056,  50.188
   662.6,0.001018,0.000878,0.010277,0.000032,  50.187
   662.8,0.001040,0.000877,0.010419,0.000109,  50.180
   663.0,0.001053,0.000889,0.010739,0.000136,  50.180
   663.2,0.001065,0.000903,0.010773,0.000150,  50.179
   663.4,0.001091,0.000914,0.010775,0.000139,  50.175
   663.6,0.001109,0.000936,0.010742,0.000176,  50.175
   663.8,0.001114,0.000950,0.010734,0.000165,  50.175
   664.0,0.001126,0.000958,0.010719,0.000179,  50.171
   664.2,0.001138,0.000973,0.010719,0.000243,  50.171
   664.4,0.001143,0.000980,0.010675,0.000270,  50.178
   664.6,0.001160,0.000984,0.010621,0.000246,  50.175
   664.8,0.001163,0.000995,0.010556,0.000270,  50.177
   665.0,0.001159,0.000997,0.010445,0.000283,  50.182
   665.2,0.001163,0.000995,0.010409,0.000232,  50.185
   665.4,0.001163,0.000998,0.010399,0.000256,  50.183
   665.6,0.001156,0.000994,0.010363,0.000270,  50.182
   665.8,0.001157,0.000994,0.010347,0.000219,  50.179
   666.0,0.001157,0.000991,0.010357,0.000256,  50.181
   666.2,0.001152,0.000995,0.010368,0.000270,  50.183
   666.4,0.001160,0.000995,0.009850,0.000270,  50.176
   666.6,0.001163,0.000994,0.009047,0.000307,  50.180
   666.8,0.001156,0.000994,0.007994,0.000321,  50.179
   667.0,0.001166,0.000999,0.007930,0.000334,  50.181
   667.2,0.001169,0.000999,0.008235,0.000334,  50.175
   667.4,0.001162,0.001005,0.008874,0.000361,  50.177
   667.6,0.001169,0.001005,0.009098,0.000361,  50.180
   667.8,0.001172,0.001002,0.009258,0.000361,  50.178
   668.0,0.001165,0.001005,0.009360,0.000374,  50.180
   668.2,0.001169,0.001006,0.009474,0.000337,  50.180
   668.4,0.001169,0.001003,0.009577,0.000323,  50.181
   668.6,0.001159,0.001009,0.009644,0.000310,  50.183
   668.8,0.001157,0.001004,0.009682,0.000272,  50.181
   669.0,0.001141,0.000991,0.009703,0.000310,  50.183
   669.2,0.001113,0.000987,0.009703,0.000283,  50.187
   669.4,0.001086,0.000973,0.009610,0.000206,  50.187
   669.6,0.001049,0.000940,0.009443,0.000203,  50.198
   669.8,0.000996,0.000910,0.009227,0.000176,  50.202
   670.0,0.000951,0.000865,0.009309,0.000099,  50.202
   670.2,0.000921,0.000832,0.009502,0.000083,  50.200
   670.4,0.000886,0.000802,0.009780,0.000056,  50.196
   670.6,0.000881,0.000775,0.009940,0.000019,  50.191
   670.8,0.000866,0.000768,0.010126,0.000056,  50.181
   671.0,0.000861,0.000762,0.010293,0.000069,  50.177
   671.2,0.000875,0.000776,0.010203,0.000059,  50.178
   671.4,0.000890,0.000788,0.010017,0.000123,  50.172
   671.6,0.000905,0.000799,0.009713,0.000150,  50.172
   671.8,0.000916,0.000819,0.009587,0.000139,  50.173
   672.0,0.000942,0.000833,0.009505,0.000190,  50.171
   672.2,0.000961,0.000841,0.009425,0.000203,  50.169
   672.4,0.000969,0.000859,0.009325,0.000230,  50.167
   672.6,0.000988,0.000867,0.009214,0.000206,  50.150
   672.8,0.001000,0.000881,0.009049,0.000243,  50.150
   673.0,0.001005,0.000896,0.008939,0.000219,  50.146
   673.2,0.001019,0.000900,0.008828,0.000232,  50.147
   673.4,0.001019,0.000903,0.008708,0.000270,  50.149
   673.6,0.001008,0.000907,0.008643,0.000270,  50.153
   673.8,0.001007,0.000905,0.008618,0.000232,  50.150
   674.0,0.001007,0.000897,0.008618,0.000243,  50.140
   674.2,0.000996,0.000900,0.008646,0.000256,  50.144
   674.4,0.001007,0.000903,0.008646,0.000219,  50.142
   674.6,0.001013,0.000897,0.008610,0.000256,  50.137
   674.8,0.001008,0.000907,0.008566,0.000270,  50.140
   675.0,0.001022,0.000912,0.008548,0.000232,  50.137
   675.2,0.001028,0.000911,0.008512,0.000283,  50.140
   675.4,0.001024,0.000921,0.008448,0.000297,  50.137
   675.6,0.001034,0.000925,0.008412,0.000259,  50.138
   675.8,0.001037,0.000925,0.008376,0.000297,  50.142
   676.0,0.001030,0.000927,0.008340,0.000310,  50.138
   676.2,0.001040,0.000932,0.008343,0.000272,  50.142
   676.4,0.001040,0.000935,0.008374,0.000297,  50.140
   676.6,0.001040,0.000932,0.008441,0.000310,  50.139
   676.8,0.001048,0.000932,0.008423,0.000272,  50.141
   677.0,0.001048,0.000935,0.008340,0.000310,  50.140
   677.2,0.001045,0.000935,0.008238,0.000310,  50.140
   677.4,0.001042,0.000940,0.007758,0.000272,  50.145
   677.6,0.001026,0.000934,0.007067,0.000297,  50.151
   677.8,0.000996,0.000915,0.006140,0.000283,  50.160
   678.0,0.000956,0.000898,0.006140,0.000206,  50.163
   678.2,0.000922,0.000866,0.006487,0.000176,  50.165
   678.4,0.000888,0.000825,0.007182,0.000150,  50.173
   678.6,0.000838,0.000775,0.007448,0.000059,  50.186
   678.8,0.000806,0.000743,0.007658,0.000043,  50.183
   679.0,0.000780,0.000720,0.007840,0.000043,  50.174
   679.2,0.000761,0.000704,0.007989,0.000005,  50.168
   679.4,0.000749,0.000699,0.008102,0.000069,  50.150
   679.6,0.000752,0.000706,0.008169,0.000083,  50.148
   679.8,0.000760,0.000721,0.008143,0.000109,  50.150
   680.0,0.000789,0.000730,0.008007,0.000160,  50.151
   680.2,0.000807,0.000752,0.007822,0.000187,  50.151
   680.4,0.000818,0.000768,0.007825,0.000214,  50.151
   680.6,0.000847,0.000777,0.007874,0.000227,  50.154
   680.8,0.000863,0.000797,0.007961,0.000241,  50.152
   681.0,0.000871,0.000808,0.007817,0.000230,  50.149
   681.2,0.000887,0.000816,0.007561,0.000281,  50.150
   681.4,0.000899,0.000828,0.007213,0.000281,  50.154
   681.6,0.000904,0.000836,0.007151,0.000256,  50.156
   681.8,0.000915,0.000836,0.007169,0.000294,  50.160
   682.0,0.000915,0.000837,0.007279,0.000294,  50.164
   682.2,0.000901,0.000837,0.007307,0.000294,  50.167
   682.4,0.000893,0.000842,0.007346,0.000294,  50.165
   682.6,0.000893,0.000839,0.007400,0.000281,  50.168
   682.8,0.000889,0.000838,0.007456,0.000294,  50.170
   683.0,0.000902,0.000841,0.007466,0.000307,  50.183
   683.2,0.000901,0.000845,0.007448,0.000307,  50.188
   683.4,0.000904,0.000845,0.007394,0.000321,  50.187
   683.6,0.000910,0.000848,0.007351,0.000321,  50.187
   683.8,0.000912,0.000850,0.007312,0.000321,  50.186
   684.0,0.000923,0.000852,0.007248,0.000334,  50.189
   684.2,0.000926,0.000855,0.007223,0.000334,  50.190
   684.4,0.000929,0.000855,0.007233,0.000347,  50.188
   684.6,0.000935,0.000857,0.007243,0.000347,  50.190
   684.8,0.000942,0.000860,0.007264,0.000347,  50.191
   685.0,0.000942,0.000862,0.007284,0.000347,  50.193
   685.2,0.000938,0.000864,0.007312,0.000347,  50.192
   685.4,0.000942,0.000869,0.007276,0.000347,  50.192
   685.6,0.000935,0.000874,0.007195,0.000347,  50.192
   685.8,0.000935,0.000871,0.007092,0.000347,  50.198
   686.0,0.000929,0.000869,0.007102,0.000334,  50.199
   686.2,0.000897,0.000859,0.007149,0.000321,  50.202
   686.4,0.000874,0.000843,0.007233,0.000307,  50.199
   686.6,0.000825,0.000819,0.007325,0.000241,  50.209
   686.8,0.000774,0.000789,0.007433,0.000174,  50.210
   687.0,0.000736,0.000751,0.007540,0.000147,  50.208
   687.2,0.000684,0.000702,0.007612,0.000094,  50.205
   687.4,0.000662,0.000675,0.007656,0.000053,  50.201
   687.6,0.000640,0.000661,0.007653,0.000053,  50.200
   687.8,0.000640,0.000651,0.007645,0.000067,  50.196
   688.0,0.000656,0.000653,0.007620,0.000094,  50.193
   688.2,0.000664,0.000660,0.007558,0.000134,  50.193
   688.4,0.000690,0.000680,0.007479,0.000147,  50.188
   688.6,0.000722,0.000691,0.007379,0.000174,  50.189
   688.8,0.000743,0.000709,0.007279,0.000214,  50.184
   689.0,0.000754,0.000729,0.006729,0.000227,  50.183
   689.2,0.000780,0.000746,0.005933,0.000241,  50.183
   689.4,0.000795,0.000759,0.004925,0.000267,  50.182
   689.6,0.000800,0.000774,0.004843,0.000281,  50.181
   689.8,0.000820,0.000786,0.005075,0.000294,  50.186
   690.0,0.000829,0.000795,0.005660,0.000294,  50.183
   690.2,0.000825,0.000802,0.005825,0.000270,  50.185
   690.4,0.000835,0.000796,0.005945,0.000294,  50.185
   690.6,0.000838,0.000793,0.006052,0.000294,  50.192
   690.8,0.000825,0.000782,0.006162,0.000270,  50.180
   691.0,0.000823,0.000774,0.006246,0.000294,  50.180
   691.2,0.000823,0.000775,0.006302,0.000281,  50.182
   691.4,0.000818,0.000780,0.006348,0.000294,  50.181
   691.6,0.000829,0.000782,0.006359,0.000256,  50.174
   691.8,0.000825,0.000787,0.006341,0.000256,  50.176
   692.0,0.000828,0.000791,0.006295,0.000270,  50.175
   692.2,0.000834,0.000796,0.006287,0.000232,  50.175
   692.4,0.000832,0.000798,0.006269,0.000283,  50.176
   692.6,0.000843,0.000809,0.006244,0.000297,  50.171
   692.8,0.000849,0.000817,0.006264,0.000259,  50.171
   693.0,0.000848,0.000814,0.006312,0.000297,  50.173
   693.2,0.000858,0.000824,0.006379,0.000310,  50.171
   693.4,0.000858,0.000823,0.006323,0.000272,  50.170
   693.6,0.000854,0.000820,0.006203,0.000297,  50.173
   693.8,0.000858,0.000828,0.005999,0.000310,  50.171
   694.0,0.000855,0.000828,0.005787,0.000272,  50.171
   694.2,0.000845,0.000828,0.005514,0.000297,  50.172
   694.4,0.000846,0.000823,0.005214,0.000310,  50.169
   694.6,0.000840,0.000822,0.005224,0.000259,  50.176
   694.8,0.000805,0.000806,0.005344,0.000270,  50.179
   695.0,0.000772,0.000781,0.005616,0.000243,  50.186
   695.2,0.000723,0.000749,0.005835,0.000165,  50.189
   695.4,0.000676,0.000711,0.006083,0.000123,  50.192
   695.6,0.000638,0.000676,0.006366,0.000096,  50.189
   695.8,0.000592,0.000632,0.006292,0.000032,  50.181
   696.0,0.000569,0.000616,0.006042,0.000029,  50.171
   696.2,0.000576,0.000602,0.005637,0.000043,  50.169
   696.4,0.000589,0.000600,0.005657,0.000019,  50.164
   696.6,0.000604,0.000607,0.005787,0.000083,  50.147
   696.8,0.000622,0.000621,0.006047,0.000109,  50.141
   697.0,0.000654,0.000633,0.006077,0.000099,  50.139
   697.2,0.000673,0.000640,0.006024,0.000163,  50.145
   697.4,0.000681,0.000657,0.005924,0.000190,  50.140
   697.6,0.000700,0.000677,0.005843,0.000165,  50.141
   697.8,0.000712,0.000689,0.005751,0.000216,  50.142
   698.0,0.000720,0.000701,0.005606,0.000230,  50.139
   698.2,0.000743,0.000712,0.005598,0.000219,  50.140
   698.4,0.000755,0.000729,0.005608,0.000243,  50.142
   698.6,0.000765,0.000732,0.005674,0.000243,  50.141
   698.8,0.000760,0.000739,0.005677,0.000219,  50.144
   699.0,0.000768,0.000743,0.005667,0.000243,  50.144
   699.2,0.000768,0.000738,0.005639,0.000243,  50.143
   699.4,0.000757,0.000734,0.005649,0.000219,  50.139
   699.6,0.000758,0.000737,0.005641,0.000243,  50.139
   699.8,0.000754,0.000735,0.005651,0.000256,  50.136
   700.0,0.000757,0.000737,0.005615,0.000256,  50.130
   700.2,0.000763,0.000739,0.005534,0.000232,  50.132
   700.4,0.000769,0.000746,0.005450,0.000270,  50.130
   700.6,0.000776,0.000750,0.005414,0.000246,  50.127
   700.8,0.000786,0.000752,0.005396,0.000259,  50.131
   701.0,0.000789,0.000757,0.005407,0.000283,  50.126
   701.2,0.000782,0.000764,0.005417,0.000297,  50.127
   701.4,0.000789,0.000769,0.005427,0.000259,  50.127
   701.6,0.000795,0.000768,0.005419,0.000297,  50.126
   701.8,0.000791,0.000771,0.005429,0.000310,  50.125
   702.0,0.000798,0.000775,0.005450,0.000272,  50.120
   702.2,0.000801,0.000772,0.005495,0.000297,  50.128
   702.4,0.000797,0.000780,0.005516,0.000310,  50.127
   702.6,0.000798,0.000780,0.005444,0.000272,  50.124
   702.8,0.000795,0.000775,0.005360,0.000297,  50.125
   703.0,0.000782,0.000772,0.005248,0.000297,  50.127
   703.2,0.000780,0.000768,0.005266,0.000246,  50.132
   703.4,0.000749,0.000741,0.005320,0.000243,  50.138
   703.6,0.000693,0.000710,0.005411,0.000216,  50.146
   703.8,0.000642,0.000678,0.005473,0.000125,  50.152
   704.0,0.000605,0.000645,0.005524,0.000083,  50.150
   704.2,0.000561,0.000607,0.005547,0.000056,  50.149
   704.4,0.000535,0.000573,0.005583,-0.000008,  50.144
   704.6,0.000529,0.000561,0.005600,0.000016,  50.138
   704.8,0.000528,0.000556,0.005618,0.000029,  50.128
   705.0,0.000553,0.000573,0.005583,0.000019,  50.127
   705.2,0.000572,0.000585,0.005529,0.000096,  50.126
   705.4,0.000586,0.000596,0.005440,0.000123,  50.119
